{"resourceType":"Bundle","id":"f8fe1013-39e4-43fa-9e05-fb8adc3ccb5f","meta":{"profile":["https://fhir.nhs.uk/STU3/StructureDefinition/DCH-Bundle-1"]},"type":"message","entry":[{"fullUrl":"urn:uuid:9d2e2cd9-ffe1-49c7-be43-f36e30564d3f","resource":{"resourceType":"MessageHeader","id":"9d2e2cd9-ffe1-49c7-be43-f36e30564d3f","meta":{"profile":["https://fhir.nhs.uk/STU3/StructureDefinition/DCH-MessageHeader-1"]},"extension":[{"url":"https://fhir.nhs.uk/STU3/StructureDefinition/Extension-DCH-MessageEventType-1","valueCodeableConcept":{"coding":[{"system":"https://fhir.nhs.uk/STU3/CodeSystem/DCH-MessageEventType-1","code":"new","display":"New event message"}]}}],"event":{"system":"https://fhir.nhs.uk/STU3/CodeSystem/DCH-ChildHealthEventType-1","code":"CH034","display":"Blood Spot Card Received"},"destination":[{"endpoint":"urn:nhs:addressing:asid:477121000325"}],"timestamp":"2017-11-01T15:00:00+00:00","source":{"endpoint":"urn:nhs:addressing:asid:300000000161"},"responsible":{"reference":"urn:uuid:33a33b58-648a-4453-b981-e21ea9ebc6ea","display":"UNIVERSITY HOSPITAL OF NORTH DURHAM"},"focus":[{"reference":"urn:uuid:1bcb0151-4ddf-4084-9c06-e8a31fdcf25b"}]}},{"fullUrl":"urn:uuid:33a33b58-648a-4453-b981-e21ea9ebc6ea","resource":{"resourceType":"Organization","id":"33a33b58-648a-4453-b981-e21ea9ebc6ea","meta":{"profile":["https://fhir.hl7.org.uk/STU3/StructureDefinition/CareConnect-Organization-1"]},"identifier":[{"system":"https://fhir.nhs.uk/Id/ods-organization-code","value":"RX3EP"}],"name":"UNIVERSITY HOSPITAL OF NORTH DURHAM","address":[{"line":["NORTH ROAD"],"city":"DURHAM","district":"COUNTY DURHAM","postalCode":"DH1 5TW"}]}},{"fullUrl":"urn:uuid:5a293df7-b22f-41b6-8bf1-44248ea59edb","resource":{"resourceType":"HealthcareService","id":"5a293df7-b22f-41b6-8bf1-44248ea59edb","meta":{"profile":["https://fhir.nhs.uk/STU3/StructureDefinition/DCH-HealthcareService-1"]},"providedBy":{"reference":"urn:uuid:33a33b58-648a-4453-b981-e21ea9ebc6ea","display":"UNIVERSITY HOSPITAL OF NORTH DURHAM"},"type":[{"coding":[{"system":"http://snomed.info/sct","code":"708196005","display":"Haematology service"}]}],"location":[{"reference":"urn:uuid:e3177167-40fc-4f1a-80f2-a2f17f18fde7"}],"telecom":[{"system":"phone","value":"0191 1231234"}]}},{"fullUrl":"urn:uuid:5d5845f3-398f-474b-af59-14882fc7b0ca","resource":{"resourceType":"Patient","id":"5d5845f3-398f-474b-af59-14882fc7b0ca","meta":{"profile":["https://fhir.nhs.uk/STU3/StructureDefinition/CareConnect-DCH-Patient-1"]},"identifier":[{"extension":[{"url":"https://fhir.hl7.org.uk/STU3/StructureDefinition/Extension-CareConnect-NHSNumberVerificationStatus-1","valueCodeableConcept":{"coding":[{"system":"https://fhir.hl7.org.uk/STU3/CodeSystem/CareConnect-NHSNumberVerificationStatus-1","code":"01","display":"Number present and verified"}]}}],"system":"https://fhir.nhs.uk/Id/nhs-number","value":"9912003888"}],"name":[{"use":"official","family":"DAWKINS","given":["Jack"]}],"gender":"male","birthDate":"2013-10-12","_birthDate":{"extension":[{"url":"http://hl7.org/fhir/StructureDefinition/patient-birthTime","valueDateTime":"2017-10-02T12:00:00+00:00"}]},"address":[{"use":"home","line":["4 Sandmoor Drive"],"city":"DURHAM","postalCode":"DH1 2TF"}]}},{"fullUrl":"urn:uuid:f1f64944-8191-4730-8f0b-d0a43517085f","resource":{"resourceType":"Specimen","id":"f1f64944-8191-4730-8f0b-d0a43517085f","meta":{"profile":["https://fhir.nhs.uk/STU3/StructureDefinition/DCH-NewbornBloodSpotScreening-Specimen-1"]},"subject":{"reference":"urn:uuid:5d5845f3-398f-474b-af59-14882fc7b0ca"},"receivedTime":"0900"}},{"fullUrl":"urn:uuid:1bcb0151-4ddf-4084-9c06-e8a31fdcf25b","resource":{"resourceType":"Encounter","id":"1bcb0151-4ddf-4084-9c06-e8a31fdcf25b","meta":{"profile":["https://fhir.nhs.uk/STU3/StructureDefinition/CareConnect-DCH-Encounter-1"]},"status":"finished","subject":{"reference":"urn:uuid:5d5845f3-398f-474b-af59-14882fc7b0ca","display":"DAWKINS, Jack"},"period":{"start":"2018-01-29"},"location":[{"location":{"reference":"urn:uuid:e3177167-40fc-4f1a-80f2-a2f17f18fde7"}}],"serviceProvider":{"reference":"urn:uuid:5a293df7-b22f-41b6-8bf1-44248ea59edb"}}},{"fullUrl":"urn:uuid:e3177167-40fc-4f1a-80f2-a2f17f18fde7","resource":{"resourceType":"Location","id":"e3177167-40fc-4f1a-80f2-a2f17f18fde7","meta":{"profile":["https://fhir.hl7.org.uk/STU3/StructureDefinition/CareConnect-Location-1"]},"identifier":[{"system":"https://fhir.nhs.uk/Id/ods-site-code","value":"RX3EP"}]}}]}