{
  "resourceType": "Bundle",
  "id": "66aa57f6-4882-11e8-842f-0ed5f89f718b",
  "meta": {
    "profile": [
      "https://fhir.nhs.uk/STU3/StructureDefinition/DCH-Bundle-1"
    ]
  },
  "type": "message",
  "entry": [
    {
      "fullUrl": "urn:uuid:85c8a1c5-a8a1-41c9-bb99-20956fa66218",
      "resource": {
        "resourceType": "MessageHeader",
        "meta": {
          "profile": [
            "https://fhir.nhs.uk/STU3/StructureDefinition/DCH-MessageHeader-1"
          ]
        },
        "extension": [
          {
            "url": "https://fhir.nhs.uk/STU3/StructureDefinition/Extension-DCH-MessageEventType-1",
            "valueCodeableConcept": {
              "coding": [
                {
                  "system": "https://fhir.nhs.uk/STU3/CodeSystem/DCH-MessageEventType-1",
                  "code": "new",
                  "display": "New event message"
                }
              ]
            }
          }
        ],
        "event": {
          "system": "https://fhir.nhs.uk/STU3/CodeSystem/DCH-ChildHealthEventType-1",
          "code": "CH030",
          "display": "Social Context Household"
        },
        "destination": [
          {
            "endpoint": "urn:nhs:addressing:asid:477121007825"
          }
        ],
        "timestamp": "2017-11-01T15:00:00+00:00",
        "source": {
          "endpoint": "urn:nhs-uk:addressing:ods:RX3QS"
        },
        "responsible": {
          "reference": "urn:uuid:48833cb6-a2d5-4364-9b08-7d2ef6dacffb",
          "display": "DURHAM SOCIAL SERVICES"
        },
        "focus": [
          {
            "reference": "urn:uuid:b6c9ce9b-4092-448b-8fc0-287cd26cec4b"
          }
        ]
      }
    },
    {
      "fhir_comments": [
        "Responsible org"
      ],
      "fullUrl": "urn:uuid:48833cb6-a2d5-4364-9b08-7d2ef6dacffb",
      "resource": {
        "resourceType": "Organization",
        "meta": {
          "profile": [
            "https://fhir.hl7.org.uk/STU3/StructureDefinition/CareConnect-Organization-1"
          ]
        },
        "identifier": [
          {
            "system": "https://fhir.nhs.uk/Id/ods-organization-code",
            "value": "RX3QJ"
          }
        ],
        "name": "DURHAM SOCIAL SERVICES",
        "address": [
          {
            "line": [
              "PRIORY HOUSE",
              "ABBEY ROAD"
            ],
            "city": "PITY ME",
            "district": "COUNTY DURHAM",
            "postalCode": "DH1 5RR"
          }
        ]
      }
    },
    {
      "fhir_comments": [
        "Healthcare service used e.g GP, trust, etc.."
      ],
      "fullUrl": "urn:uuid:5a293df7-b22f-41b6-8bf1-44248ea59edb",
      "resource": {
        "resourceType": "HealthcareService",
        "meta": {
          "profile": [
            "https://fhir.nhs.uk/STU3/StructureDefinition/DCH-HealthcareService-1"
          ]
        },
        "providedBy": {
          "reference": "urn:uuid:48833cb6-a2d5-4364-9b08-7d2ef6dacffb",
          "display": "DURHAM SOCIAL SERVICES"
        },
        "type": [
          {
            "coding": [
              {
                "system": "http://snomed.info/sct",
                "code": "71078501000000104",
                "display": "Health visiting service"
              }
            ]
          }
        ],
        "location": [
          {
            "reference": "urn:uuid:e3177167-40fc-4f1a-80f2-a2f17f18fde7"
          }
        ],
        "telecom": [
          {
            "system": "phone",
            "value": "0191 9876543"
          }
        ]
      }
    },
    {
      "fhir_comments": [
        "Child Details (Jack Dawkins)"
      ],
      "fullUrl": "urn:uuid:5d5845f3-398f-474b-af59-14882fc7b0ca",
      "resource": {
        "resourceType": "Patient",
        "meta": {
          "profile": [
            "https://fhir.nhs.uk/STU3/StructureDefinition/CareConnect-DCH-Patient-1"
          ]
        },
        "identifier": [
          {
            "extension": [
              {
                "url": "https://fhir.hl7.org.uk/STU3/StructureDefinition/Extension-CareConnect-NHSNumberVerificationStatus-1",
                "valueCodeableConcept": {
                  "coding": [
                    {
                      "system": "https://fhir.hl7.org.uk/STU3/CodeSystem/CareConnect-NHSNumberVerificationStatus-1",
                      "code": "01",
                      "display": "Number present and verified"
                    }
                  ]
                }
              }
            ],
            "system": "https://fhir.nhs.uk/Id/nhs-number",
            "value": "9912003888"
          }
        ],
        "name": [
          {
            "use": "official",
            "family": "DAWKINS",
            "given": [
              "Jack"
            ]
          }
        ],
        "gender": "male",
        "birthDate": "2013-10-12",
        "_birthDate": {
          "extension": [
            {
              "url": "http://hl7.org/fhir/StructureDefinition/patient-birthTime",
              "valueDateTime": "2017-10-02T12:00:00+00:00"
            }
          ]
        },
        "address": [
          {
            "use": "home",
            "line": [
              "4 Sandmoor Drive"
            ],
            "city": "DURHAM",
            "postalCode": "DH1 2TF"
          }
        ]
      }
    },
    {
      "fhir_comments": [
        "Social Context Household Encounter details"
      ],
      "fullUrl": "urn:uuid:b6c9ce9b-4092-448b-8fc0-287cd26cec4b",
      "resource": {
        "resourceType": "Encounter",
        "meta": {
          "profile": [
            "https://fhir.nhs.uk/STU3/StructureDefinition/CareConnect-DCH-Encounter-1"
          ]
        },
        "status": "finished",
        "type": [
          {
            "coding": [
              {
                "system": "https://fhir.nhs.uk/STU3/CodeSystem/DCH-ChildHealthEncounterType-1",
                "code": "0022",
                "display": "6-8 Week Health Visitor review"
              }
            ]
          }
        ],
        "subject": {
          "reference": "urn:uuid:5d5845f3-398f-474b-af59-14882fc7b0ca",
          "display": "DAWKINS, Jack"
        },
        "period": {
          "start": "2018-01-29"
        },
        "location": [
          {
            "location": {
              "reference": "urn:uuid:e3177167-40fc-4f1a-80f2-a2f17f18fde7",
              "display": "DURHAM SOCIAL SERVICES"
            }
          }
        ],
        "serviceProvider": {
          "reference": "urn:uuid:48833cb6-a2d5-4364-9b08-7d2ef6dacffb",
          "display": "DURHAM SOCIAL SERVICES"
        }
      }
    },
    {
      "fhir_comments": [
        "Social Context Household"
      ],
      "fullUrl": "urn:uuid:9fa0541c-67a2-4946-a7e3-ef3c4a8991f1",
      "resource": {
        "resourceType": "QuestionnaireResponse",
        "meta": {
          "profile": [
            "https://fhir.nhs.uk/STU3/StructureDefinition/DCH-SocialContextHousehold-QuestionnaireResponse-1"
          ]
        },
        "status": "completed",
        "subject": {
          "reference": "urn:uuid:5d5845f3-398f-474b-af59-14882fc7b0ca"
        },
        "context": {
          "reference": "urn:uuid:b6c9ce9b-4092-448b-8fc0-287cd26cec4b"
        },
        "item": [
          {
            "linkId": "mothersEducationLevel",
            "text": "Mothers Education Level",
            "answer": [
              {
                "valueCoding": {
                  "system": "https://fhir.nhs.uk/STU3/CodeSystem/DCH-EducationLevel-1",
                  "code": "level7",
                  "display": "Master's degree"
                }
              }
            ]
          },
          {
            "linkId": "householdSmokingStatus",
            "text": "Household smoking status",
            "answer": [
              {
                "valueCoding": {
                  "system": "http://snomed.info/sct",
                  "code": "94151000119101",
                  "display": "Smoker in household (situation)"
                }
              }
            ]
          },
          {
            "linkId": "substanceStatus",
            "text": "Household substance status",
            "answer": [
              {
                "valueCoding": {
                  "system": "http://snomed.info/sct",
                  "code": "1104271000000102",
                  "display": "No history of substance misuse in household (finding)"
                }
              }
            ]
          },
          {
            "linkId": "householdAlcoholDrinkingStatus",
            "text": "Household alcohol drinking status",
            "answer": [
              {
                "valueCoding": {
                  "system": "http://snomed.info/sct",
                  "code": "1104841000000109",
                  "display": "No history of alcohol use in household (situation)"
                }
              }
            ]
          },
          {
            "linkId": "employmentStatusCareGiver1",
            "text": "Employment status (care giver 1)",
            "answer": [
              {
                "valueCoding": {
                  "system": "https://fhir.nhs.uk/STU3/CodeSystem/DCH-EmploymentStatus-1",
                  "code": "1",
                  "display": "Employed"
                }
              }
            ]
          },
          {
            "linkId": "occupationCareGiver1",
            "text": "Care giver 1's occupation",
            "answer": [
              {
                "valueCoding": {
                  "system": "http://snomed.info/sct",
                  "code": "25285009",
                  "display": "Accountant (general)"
                }
              }
            ]
          },
          {
            "linkId": "employmentStatusCareGiver2",
            "text": "Employment status (care giver 2)",
            "answer": [
              {
                "valueCoding": {
                  "system": "https://fhir.nhs.uk/STU3/CodeSystem/DCH-EmploymentStatus-1",
                  "code": "1",
                  "display": "Employed"
                }
              }
            ]
          },
          {
            "linkId": "occupationCareGiver2",
            "text": "Care giver 2's occupation",
            "answer": [
              {
                "extension": [
                  {
                    "url": "http://hl7.org/fhir/StructureDefinition/questionnaireresponse-note",
                    "valueAnnotation": {
                      "text": "Business Analyst"
                    }
                  }
                ],
                "valueCoding": {
                  "system": "http://snomed.info/sct",
                  "code": "20222007",
                  "display": "Systems analyst"
                }
              }
            ]
          },
          {
            "linkId": "accommodationStatus",
            "text": "Accommodation status",
            "answer": [
              {
                "valueCoding": {
                  "system": "https://fhir.nhs.uk/STU3/CodeSystem/DCH-AccommodationStatus-1",
                  "code": "MA01",
                  "display": "Owner occupier"
                }
              }
            ]
          }
        ]
      }
    },
    {
      "fhir_comments": [
        "Location where event took place"
      ],
      "fullUrl": "urn:uuid:e3177167-40fc-4f1a-80f2-a2f17f18fde7",
      "resource": {
        "resourceType": "Location",
        "meta": {
          "profile": [
            "https://fhir.hl7.org.uk/STU3/StructureDefinition/CareConnect-Location-1"
          ]
        },
        "identifier": [
          {
            "system": "https://fhir.nhs.uk/Id/ods-site-code",
            "value": "RX3QJ"
          }
        ],
        "name": "DURHAM SOCIAL SERVICES"
      }
    }
  ]
}