{
  "resourceType": "Bundle",
  "id": "ad4f9e16-aa2c-477e-bfbf-53d40ef1452b",
  "meta": {
    "profile": [
      "https://fhir.nhs.uk/STU3/StructureDefinition/DCH-Bundle-1"
    ]
  },
  "type": "message",
  "entry": [
    {
      "fullUrl": "urn:uuid:85c8a1c5-a8a1-41c9-bb99-20956fa66218",
      "resource": {
        "resourceType": "MessageHeader",
        "meta": {
          "profile": [
            "https://fhir.nhs.uk/STU3/StructureDefinition/DCH-MessageHeader-1"
          ]
        },
        "extension": [
          {
            "url": "https://fhir.nhs.uk/STU3/StructureDefinition/Extension-DCH-MessageEventType-1",
            "valueCodeableConcept": {
              "coding": [
                {
                  "system": "https://fhir.nhs.uk/STU3/CodeSystem/DCH-MessageEventType-1",
                  "code": "new",
                  "display": "New event message"
                }
              ]
            }
          }
        ],
        "event": {
          "system": "https://fhir.nhs.uk/STU3/CodeSystem/DCH-ChildHealthEventType-1",
          "code": "CH032",
          "display": "Educational History"
        },
        "destination": [
          {
            "endpoint": "urn:nhs:addressing:asid:477121123325"
          }
        ],
        "timestamp": "2017-11-01T15:00:00+00:00",
        "source": {
          "endpoint": "urn:nhs-uk:addressing:ods:A83627"
        },
        "responsible": {
          "reference": "urn:uuid:3ff6d789-af64-4d9c-aa1d-0087d29e9e1c",
          "display": "SILVERDALE FAMILY PRACTICE"
        },
        "focus": [
          {
            "reference": "urn:uuid:12779557-9033-4213-876f-69a670cdf35d"
          }
        ]
      }
    },
    {
      "fhir_comments": [
        "Responsible Org (MessageHeader.responsible)"
      ],
      "fullUrl": "urn:uuid:3ff6d789-af64-4d9c-aa1d-0087d29e9e1c",
      "resource": {
        "resourceType": "Organization",
        "meta": {
          "profile": [
            "https://fhir.hl7.org.uk/STU3/StructureDefinition/CareConnect-Organization-1"
          ]
        },
        "identifier": [
          {
            "system": "https://fhir.nhs.uk/Id/ods-organization-code",
            "value": "A83627"
          }
        ],
        "name": "SILVERDALE FAMILY PRACTICE",
        "address": [
          {
            "line": [
              "FRONT STREET",
              "SOUTH HETTON"
            ],
            "city": "DURHAM",
            "district": "COUNTY DURHAM",
            "postalCode": "DH6 2TH"
          }
        ]
      }
    },
    {
      "fhir_comments": [
        "Healthcare service used e.g GP, trust, etc.."
      ],
      "fullUrl": "urn:uuid:5a293df7-b22f-41b6-8bf1-44248ea59edb",
      "resource": {
        "resourceType": "HealthcareService",
        "meta": {
          "profile": [
            "https://fhir.nhs.uk/STU3/StructureDefinition/DCH-HealthcareService-1"
          ]
        },
        "providedBy": {
          "reference": "urn:uuid:3ff6d789-af64-4d9c-aa1d-0087d29e9e1c",
          "display": "SILVERDALE FAMILY PRACTICE"
        },
        "type": [
          {
            "coding": [
              {
                "system": "http://snomed.info/sct",
                "code": "71078501000000104",
                "display": "Health visiting service"
              }
            ]
          }
        ],
        "location": [
          {
            "reference": "urn:uuid:e3177167-40fc-4f1a-80f2-a2f17f18fde7"
          }
        ],
        "telecom": [
          {
            "system": "phone",
            "value": "0191 1231234"
          }
        ]
      }
    },
    {
      "fhir_comments": [
        "Who the patient (child) is"
      ],
      "fullUrl": "urn:uuid:5d5845f3-398f-474b-af59-14882fc7b0ca",
      "resource": {
        "resourceType": "Patient",
        "meta": {
          "profile": [
            "https://fhir.nhs.uk/STU3/StructureDefinition/CareConnect-DCH-Patient-1"
          ]
        },
        "identifier": [
          {
            "extension": [
              {
                "url": "https://fhir.hl7.org.uk/STU3/StructureDefinition/Extension-CareConnect-NHSNumberVerificationStatus-1",
                "valueCodeableConcept": {
                  "coding": [
                    {
                      "system": "https://fhir.hl7.org.uk/STU3/CodeSystem/CareConnect-NHSNumberVerificationStatus-1",
                      "code": "01",
                      "display": "Number present and verified"
                    }
                  ]
                }
              }
            ],
            "system": "https://fhir.nhs.uk/Id/nhs-number",
            "value": "9912003888"
          }
        ],
        "name": [
          {
            "use": "official",
            "family": "DAWKINS",
            "given": [
              "Jack"
            ]
          }
        ],
        "gender": "male",
        "birthDate": "2017-10-02",
        "_birthDate": {
          "extension": [
            {
              "url": "http://hl7.org/fhir/StructureDefinition/patient-birthTime",
              "valueDateTime": "2017-10-02T20:12:00+00:00"
            }
          ]
        },
        "address": [
          {
            "use": "home",
            "line": [
              "4 Sandmoor Drive"
            ],
            "city": "LEEDS",
            "postalCode": "DH1 2TF"
          }
        ]
      }
    },
    {
      "fhir_comments": [
        "Educational History"
      ],
      "fullUrl": "urn:uuid:3a13255f-97da-4578-a123-0688e22f971f",
      "resource": {
        "resourceType": "QuestionnaireResponse",
        "meta": {
          "profile": [
            "https://fhir.nhs.uk/STU3/StructureDefinition/DCH-EducationalHistory-QuestionnaireResponse-1"
          ]
        },
        "status": "completed",
        "subject": {
          "reference": "urn:uuid:5d5845f3-398f-474b-af59-14882fc7b0ca"
        },
        "context": {
          "reference": "urn:uuid:12779557-9033-4213-876f-69a670cdf35d"
        },
        "item": [
          {
            "linkId": "educationalEstablishment",
            "text": "Educational Establishment",
            "answer": [
              {
                "valueReference": {
                  "reference": "urn:uuid:b110ab59-db57-4492-b9e6-1d5b7d4fefd2",
                  "display": "UNIVERSITY OF SUNDERLAND DAY NURSERY"
                }
              }
            ]
          },
          {
            "linkId": "educationalEstablishmentType",
            "text": "Type of Educational establishment",
            "answer": [
              {
                "valueCoding": {
                  "system": "https://fhir.nhs.uk/STU3/CodeSystem/DCH-EducationalEstablishmentType-1",
                  "code": "1",
                  "display": "Nursery"
                }
              }
            ]
          },
          {
            "linkId": "educationalEstablishmentStart",
            "text": "Year From",
            "answer": [
              {
                "valueDate": "2018"
              }
            ]
          },
          {
            "linkId": "educationalEstablishmentEnd",
            "text": "Year To",
            "answer": [
              {
                "valueDate": "2019"
              }
            ]
          }
        ]
      }
    },
    {
      "fhir_comments": [
        "Educational Establishment Org"
      ],
      "fullUrl": "urn:uuid:b110ab59-db57-4492-b9e6-1d5b7d4fefd2",
      "resource": {
        "resourceType": "Organization",
        "meta": {
          "profile": [
            "https://fhir.hl7.org.uk/STU3/StructureDefinition/CareConnect-Organization-1"
          ]
        },
        "identifier": [
          {
            "system": "https://fhir.nhs.uk/Id/ods-organization-code",
            "value": "A12327"
          }
        ],
        "name": "UNIVERSITY OF SUNDERLAND DAY NURSERY",
        "telecom": [
          {
            "system": "phone",
            "value": "0191 5152000"
          }
        ],
        "address": [
          {
            "line": [
              "EDINBURGH BUILDING",
              "CITY CAMPUS",
              "CHESTER ROAD"
            ],
            "city": "SUNDERLAND",
            "district": "TYNE AND WEAR",
            "postalCode": "SR1 3SD"
          }
        ]
      }
    },
    {
      "fhir_comments": [
        "Educational History Encounter details"
      ],
      "fullUrl": "urn:uuid:12779557-9033-4213-876f-69a670cdf35d",
      "resource": {
        "resourceType": "Encounter",
        "meta": {
          "profile": [
            "https://fhir.nhs.uk/STU3/StructureDefinition/CareConnect-DCH-Encounter-1"
          ]
        },
        "status": "finished",
        "type": [
          {
            "coding": [
              {
                "system": "https://fhir.nhs.uk/STU3/CodeSystem/DCH-ChildHealthEncounterType-1",
                "code": "0028",
                "display": "GP Appointment"
              }
            ]
          }
        ],
        "subject": {
          "reference": "urn:uuid:5d5845f3-398f-474b-af59-14882fc7b0ca",
          "display": "DAWKINS, Jack"
        },
        "period": {
          "start": "2018-01-29"
        },
        "location": [
          {
            "location": {
              "reference": "urn:uuid:e3177167-40fc-4f1a-80f2-a2f17f18fde7",
              "display": "SILVERDALE FAMILY PRACTICE"
            }
          }
        ],
        "serviceProvider": {
          "reference": "urn:uuid:3ff6d789-af64-4d9c-aa1d-0087d29e9e1c",
          "display": "SILVERDALE FAMILY PRACTICE"
        }
      }
    },
    {
      "fhir_comments": [
        "Related person giving comment"
      ],
      "fullUrl": "urn:uuid:8d99532e-08ce-4981-80c6-40ae6e9c7a47",
      "resource": {
        "resourceType": "RelatedPerson",
        "meta": {
          "profile": [
            "https://fhir.nhs.uk/STU3/StructureDefinition/DCH-RelatedPerson-1"
          ]
        },
        "patient": {
          "reference": "urn:uuid:5d5845f3-398f-474b-af59-14882fc7b0ca",
          "display": "DAWKINS, Jack"
        },
        "relationship": {
          "coding": [
            {
              "system": "https://fhir.nhs.uk/STU3/CodeSystem/NHSDataDictionary-RelationshipToPersonForChildrenAndYoungPeople-1",
              "code": "BPM",
              "display": "Biological mother"
            }
          ]
        },
        "name": [
          {
            "use": "official",
            "family": "DAWKINS",
            "given": [
              "Jane"
            ]
          }
        ],
        "gender": "female",
        "birthDate": "1993-12-10",
        "_birthDate": {
          "extension": [
            {
              "url": "http://hl7.org/fhir/StructureDefinition/patient-birthTime",
              "valueDateTime": "1993-12-02T10:00:00+00:00"
            }
          ]
        },
        "address": [
          {
            "use": "home",
            "line": [
              "4 Sandmoor Drive"
            ],
            "city": "DURHAM",
            "postalCode": "DH1 2TF"
          }
        ]
      }
    },
    {
      "fhir_comments": [
        "Special Educational Need Comment"
      ],
      "fullUrl": "urn:uuid:872c7730-1690-4e72-9434-0794dafa6ea9",
      "resource": {
        "resourceType": "Communication",
        "meta": {
          "profile": [
            "https://fhir.nhs.uk/STU3/StructureDefinition/DCH-InformationAndAdviceGiven-Communication-1"
          ]
        },
        "status": "completed",
        "subject": {
          "reference": "urn:uuid:5d5845f3-398f-474b-af59-14882fc7b0ca"
        },
        "context": {
          "reference": "urn:uuid:12779557-9033-4213-876f-69a670cdf35d"
        },
        "sent": "2018-02-20",
        "sender": {
          "reference": "urn:uuid:8d99532e-08ce-4981-80c6-40ae6e9c7a47"
        },
        "payload": [
          {
            "contentString": "Jack is under assessment for autistic disorder."
          }
        ]
      }
    },
    {
      "fhir_comments": [
        "Location where event took place"
      ],
      "fullUrl": "urn:uuid:e3177167-40fc-4f1a-80f2-a2f17f18fde7",
      "resource": {
        "resourceType": "Location",
        "meta": {
          "profile": [
            "https://fhir.hl7.org.uk/STU3/StructureDefinition/CareConnect-Location-1"
          ]
        },
        "identifier": [
          {
            "system": "https://fhir.nhs.uk/Id/ods-site-code",
            "value": "A83627"
          }
        ],
        "name": "SILVERDALE FAMILY PRACTICE"
      }
    }
  ]
}