{"resourceType":"Bundle","id":"3e44007e-9282-4f3f-8aaa-4b96cd6f2115","meta":{"profile":["https://fhir.nhs.uk/STU3/StructureDefinition/DCH-Bundle-1"]},"type":"message","entry":[{"fullUrl":"urn:uuid:85c8a1c5-a8a1-41c9-bb99-20956fa66218","resource":{"resourceType":"MessageHeader","id":"85c8a1c5-a8a1-41c9-bb99-20956fa66218","meta":{"profile":["https://fhir.nhs.uk/STU3/StructureDefinition/DCH-MessageHeader-1"]},"extension":[{"url":"https://fhir.nhs.uk/STU3/StructureDefinition/Extension-DCH-MessageEventType-1","valueCodeableConcept":{"coding":[{"system":"https://fhir.nhs.uk/STU3/CodeSystem/DCH-MessageEventType-1","code":"new","display":"New event message"}]}}],"event":{"system":"https://fhir.nhs.uk/STU3/CodeSystem/DCH-ChildHealthEventType-1","code":"CH007","display":"Clinical Risk Factors"},"destination":[{"endpoint":"urn:nhs:addressing:asid:477121000325"}],"timestamp":"2017-11-01T15:00:00+00:00","source":{"endpoint":"urn:nhs-uk:addressing:ods:A83627"},"responsible":{"reference":"urn:uuid:3ff6d789-af64-4d9c-aa1d-0087d29e9e1c","display":"SILVERDALE FAMILY PRACTICE"},"focus":[{"reference":"urn:uuid:12779557-9033-4213-876f-69a670cdf35d"}]}},{"fullUrl":"urn:uuid:3ff6d789-af64-4d9c-aa1d-0087d29e9e1c","resource":{"resourceType":"Organization","id":"3ff6d789-af64-4d9c-aa1d-0087d29e9e1c","meta":{"profile":["https://fhir.hl7.org.uk/STU3/StructureDefinition/CareConnect-Organization-1"]},"identifier":[{"system":"https://fhir.nhs.uk/Id/ods-organization-code","value":"A83627"}],"name":"SILVERDALE FAMILY PRACTICE","address":[{"line":["FRONT STREET","SOUTH HETTON"],"city":"DURHAM","district":"COUNTY DURHAM","postalCode":"DH6 2TH"}]}},{"fullUrl":"urn:uuid:5a293df7-b22f-41b6-8bf1-44248ea59edb","resource":{"resourceType":"HealthcareService","id":"5a293df7-b22f-41b6-8bf1-44248ea59edb","meta":{"profile":["https://fhir.nhs.uk/STU3/StructureDefinition/DCH-HealthcareService-1"]},"providedBy":{"reference":"urn:uuid:3ff6d789-af64-4d9c-aa1d-0087d29e9e1c","display":"SILVERDALE FAMILY PRACTICE"},"type":[{"coding":[{"system":"http://snomed.info/sct","code":"71078501000000104","display":"Health visiting service"}]}],"location":[{"reference":"urn:uuid:e3177167-40fc-4f1a-80f2-a2f17f18fde7"}],"telecom":[{"system":"phone","value":"0191 1231234"}]}},{"fullUrl":"urn:uuid:5d5845f3-398f-474b-af59-14882fc7b0ca","resource":{"resourceType":"Patient","id":"5d5845f3-398f-474b-af59-14882fc7b0ca","meta":{"profile":["https://fhir.nhs.uk/STU3/StructureDefinition/CareConnect-DCH-Patient-1"]},"identifier":[{"extension":[{"url":"https://fhir.hl7.org.uk/STU3/StructureDefinition/Extension-CareConnect-NHSNumberVerificationStatus-1","valueCodeableConcept":{"coding":[{"system":"https://fhir.hl7.org.uk/STU3/CodeSystem/CareConnect-NHSNumberVerificationStatus-1","code":"01","display":"Number present and verified"}]}}],"system":"https://fhir.nhs.uk/Id/nhs-number","value":"9912003888"}],"name":[{"use":"official","family":"DAWKINS","given":["Jack"]}],"gender":"male","birthDate":"2013-10-12","_birthDate":{"extension":[{"url":"http://hl7.org/fhir/StructureDefinition/patient-birthTime","valueDateTime":"2017-10-02T12:00:00+00:00"}]},"address":[{"use":"home","line":["4 Sandmoor Drive"],"city":"DURHAM","postalCode":"DH1 2TF"}]}},{"fullUrl":"urn:uuid:12779557-9033-4213-876f-69a670cdf35d","resource":{"resourceType":"Encounter","id":"12779557-9033-4213-876f-69a670cdf35d","meta":{"profile":["https://fhir.nhs.uk/STU3/StructureDefinition/CareConnect-DCH-Encounter-1"]},"status":"finished","type":[{"coding":[{"system":"https://fhir.nhs.uk/STU3/CodeSystem/DCH-ChildHealthEncounterType-1","code":"0028","display":"GP Appointment"}]}],"subject":{"reference":"urn:uuid:5d5845f3-398f-474b-af59-14882fc7b0ca","display":"DAWKINS, Jack"},"period":{"start":"2018-01-29"},"location":[{"location":{"reference":"urn:uuid:e3177167-40fc-4f1a-80f2-a2f17f18fde7","display":"SILVERDALE FAMILY PRACTICE"}}],"serviceProvider":{"reference":"urn:uuid:5a293df7-b22f-41b6-8bf1-44248ea59edb","display":"SILVERDALE FAMILY PRACTICE"}}},{"fullUrl":"urn:uuid:646d5764-09da-4b30-afba-010b9724bf2b","resource":{"resourceType":"RiskAssessment","id":"646d5764-09da-4b30-afba-010b9724bf2b","meta":{"profile":["https://fhir.nhs.uk/STU3/StructureDefinition/DCH-ClinicalRiskFactor-RiskAssessment-1"]},"status":"final","method":{"text":"A case study approach, using exposure and mortality data from the county."},"code":{"coding":[{"system":"http://snomed.info/sct","code":"886831000000103","display":"Clinical risk assessment (record artifact)"}]},"subject":{"reference":"urn:uuid:5d5845f3-398f-474b-af59-14882fc7b0ca"},"context":{"reference":"urn:uuid:12779557-9033-4213-876f-69a670cdf35d"},"occurrenceDateTime":"2018-01-30T09:44:43+10:00","performer":{"reference":"urn:uuid:19842895-20b0-49c8-a498-a1fc05bd268c"},"prediction":[{"outcome":{"text":"Predict breathing and cardiac problems for this patient in the long term, unless a smoke free environment is maintained around the child."}}],"mitigation":"Reduce exposure to second hand smoke. Interventations must be taken to reduce this risk e.g smoking cessation programme for parents."}},{"fullUrl":"urn:uuid:b7e3cc3a-9120-49fe-801c-2793b80ca922","resource":{"resourceType":"PractitionerRole","id":"b7e3cc3a-9120-49fe-801c-2793b80ca922","meta":{"profile":["https://fhir.nhs.uk/STU3/StructureDefinition/CareConnect-DCH-PractitionerRole-1"]},"identifier":[{"system":"https://fhir.nhs.uk/Id/sds-role-profile-id","value":"PT2468"}],"practitioner":{"reference":"urn:uuid:19842895-20b0-49c8-a498-a1fc05bd268c"},"organization":{"reference":"urn:uuid:e3177167-40fc-4f1a-80f2-a2f17f18fde7"},"code":[{"coding":[{"system":"https://fhir.nhs.uk/STU3/CodeSystem/CareConnect-DCH-SDSJobRoleName-1","code":"R0260","display":"General Medical Practitioner"}]}]}},{"fullUrl":"urn:uuid:19842895-20b0-49c8-a498-a1fc05bd268c","resource":{"resourceType":"Practitioner","id":"19842895-20b0-49c8-a498-a1fc05bd268c","meta":{"profile":["https://fhir.nhs.uk/STU3/StructureDefinition/CareConnect-DCH-Practitioner-1"]},"identifier":[{"system":"https://fhir.nhs.uk/Id/sds-role-profile-id","value":"PT2468"}],"name":[{"family":"Strange","given":["Stephen"],"prefix":["Dr."]}]}},{"fullUrl":"urn:uuid:6226a795-7bc5-4b82-ac23-b07975ebcdd9","resource":{"resourceType":"PractitionerRole","id":"6226a795-7bc5-4b82-ac23-b07975ebcdd9","meta":{"profile":["https://fhir.nhs.uk/STU3/StructureDefinition/CareConnect-DCH-PractitionerRole-1"]},"identifier":[{"system":"https://fhir.nhs.uk/Id/sds-role-profile-id","value":"PT2468"}],"practitioner":{"reference":"urn:uuid:19842895-20b0-49c8-a498-a1fc05bd268c"},"organization":{"reference":"urn:uuid:e3177167-40fc-4f1a-80f2-a2f17f18fde7"}}},{"fullUrl":"urn:uuid:e3177167-40fc-4f1a-80f2-a2f17f18fde7","resource":{"resourceType":"Location","id":"e3177167-40fc-4f1a-80f2-a2f17f18fde7","meta":{"profile":["https://fhir.hl7.org.uk/STU3/StructureDefinition/CareConnect-Location-1"]},"identifier":[{"system":"https://fhir.nhs.uk/Id/ods-site-code","value":"A83627"}],"name":"SILVERDALE FAMILY PRACTICE"}}]}