{
  "resourceType": "Bundle",
  "id": "66aa5f6c-4882-11e8-842f-0ed5f89f718b",
  "meta": {
    "profile": [
      "https://fhir.nhs.uk/STU3/StructureDefinition/DCH-Bundle-1"
    ]
  },
  "type": "message",
  "entry": [
    {
      "fullUrl": "urn:uuid:85c8a1c5-a8a1-41c9-bb99-20956fa66218",
      "resource": {
        "resourceType": "MessageHeader",
        "meta": {
          "profile": [
            "https://fhir.nhs.uk/STU3/StructureDefinition/DCH-MessageHeader-1"
          ]
        },
        "extension": [
          {
            "url": "https://fhir.nhs.uk/STU3/StructureDefinition/Extension-DCH-MessageEventType-1",
            "valueCodeableConcept": {
              "coding": [
                {
                  "system": "https://fhir.nhs.uk/STU3/CodeSystem/DCH-MessageEventType-1",
                  "code": "new",
                  "display": "New event message"
                }
              ]
            }
          }
        ],
        "event": {
          "system": "https://fhir.nhs.uk/STU3/CodeSystem/DCH-ChildHealthEventType-1",
          "code": "CH031",
          "display": "Social Context"
        },
        "destination": [
          {
            "endpoint": "urn:nhs:addressing:asid:477121000325"
          }
        ],
        "timestamp": "2017-11-01T15:00:00+00:00",
        "source": {
          "endpoint": "urn:nhs-uk:addressing:ods:RX3QJ"
        },
        "responsible": {
          "reference": "urn:uuid:48833cb6-a2d5-4364-9b08-7d2ef6dacffb",
          "display": "DURHAM SOCIAL SERVICES"
        },
        "focus": [
          {
            "reference": "urn:uuid:a0b4e544-fc29-4953-91e6-8b09073b15f5"
          }
        ]
      }
    },
    {
      "fhir_comments": [
        "Responsible org"
      ],
      "fullUrl": "urn:uuid:48833cb6-a2d5-4364-9b08-7d2ef6dacffb",
      "resource": {
        "resourceType": "Organization",
        "meta": {
          "profile": [
            "https://fhir.hl7.org.uk/STU3/StructureDefinition/CareConnect-Organization-1"
          ]
        },
        "identifier": [
          {
            "system": "https://fhir.nhs.uk/Id/ods-organization-code",
            "value": "RX3QJ"
          }
        ],
        "name": "DURHAM SOCIAL SERVICES",
        "address": [
          {
            "line": [
              "PRIORY HOUSE",
              "ABBEY ROAD"
            ],
            "city": "PITY ME",
            "district": "COUNTY DURHAM",
            "postalCode": "DH1 5RR"
          }
        ]
      }
    },
    {
      "fhir_comments": [
        "Healthcare service used e.g GP, trust, etc.."
      ],
      "fullUrl": "urn:uuid:5a293df7-b22f-41b6-8bf1-44248ea59edb",
      "resource": {
        "resourceType": "HealthcareService",
        "meta": {
          "profile": [
            "https://fhir.nhs.uk/STU3/StructureDefinition/DCH-HealthcareService-1"
          ]
        },
        "providedBy": {
          "reference": "urn:uuid:48833cb6-a2d5-4364-9b08-7d2ef6dacffb",
          "display": "DURHAM SOCIAL SERVICES"
        },
        "type": [
          {
            "coding": [
              {
                "system": "http://snomed.info/sct",
                "code": "708170008",
                "display": "Nursing service"
              }
            ]
          }
        ],
        "location": [
          {
            "reference": "urn:uuid:e3177167-40fc-4f1a-80f2-a2f17f18fde7"
          }
        ],
        "telecom": [
          {
            "system": "phone",
            "value": "0191 1231234"
          }
        ]
      }
    },
    {
      "fhir_comments": [
        "Child Details (Jack Dawkins)"
      ],
      "fullUrl": "urn:uuid:5d5845f3-398f-474b-af59-14882fc7b0ca",
      "resource": {
        "resourceType": "Patient",
        "meta": {
          "profile": [
            "https://fhir.nhs.uk/STU3/StructureDefinition/CareConnect-DCH-Patient-1"
          ]
        },
        "identifier": [
          {
            "extension": [
              {
                "url": "https://fhir.hl7.org.uk/STU3/StructureDefinition/Extension-CareConnect-NHSNumberVerificationStatus-1",
                "valueCodeableConcept": {
                  "coding": [
                    {
                      "system": "https://fhir.hl7.org.uk/STU3/CodeSystem/CareConnect-NHSNumberVerificationStatus-1",
                      "code": "01",
                      "display": "Number present and verified"
                    }
                  ]
                }
              }
            ],
            "system": "https://fhir.nhs.uk/Id/nhs-number",
            "value": "9912003888"
          }
        ],
        "name": [
          {
            "use": "official",
            "family": "DAWKINS",
            "given": [
              "Jack"
            ]
          }
        ],
        "gender": "male",
        "birthDate": "2013-10-12",
        "_birthDate": {
          "extension": [
            {
              "url": "http://hl7.org/fhir/StructureDefinition/patient-birthTime",
              "valueDateTime": "2017-10-02T12:00:00+00:00"
            }
          ]
        },
        "address": [
          {
            "use": "home",
            "line": [
              "4 Sandmoor Drive"
            ],
            "city": "DURHAM",
            "postalCode": "DH1 2TF"
          }
        ]
      }
    },
    {
      "fhir_comments": [
        "Social Context"
      ],
      "fullUrl": "urn:uuid:12a254e5-deb6-4efd-9bb1-36d286115819",
      "resource": {
        "resourceType": "QuestionnaireResponse",
        "meta": {
          "profile": [
            "https://fhir.nhs.uk/STU3/StructureDefinition/DCH-SocialContextPerson-QuestionnaireResponse-1"
          ]
        },
        "status": "completed",
        "subject": {
          "reference": "urn:uuid:5d5845f3-398f-474b-af59-14882fc7b0ca"
        },
        "context": {
          "reference": "urn:uuid:a0b4e544-fc29-4953-91e6-8b09073b15f5"
        },
        "item": [
          {
            "linkId": "socialCircumstances",
            "text": "Social Circumstances",
            "answer": [
              {
                "valueString": "The family are dependant on the charity of local food banks, as their household income is too low to afford food. One parent smokes cigarettes in the home."
              }
            ]
          },
          {
            "linkId": "lifestyle",
            "text": "Lifestyle",
            "answer": [
              {
                "valueString": "Unhealthy child who is not active."
              }
            ]
          },
          {
            "linkId": "smokingStatus",
            "text": "Smoking Status",
            "answer": [
              {
                "valueCoding": {
                  "system": "http://snomed.info/sct",
                  "code": "266919005",
                  "display": "Never smoked tobacco"
                }
              }
            ]
          },
          {
            "linkId": "smokingStatusDetails",
            "text": "Smoking Status - Details",
            "answer": [
              {
                "valueString": "The child is regulary exposed to secondhand smoke in their home, and is more likely to suffer from health risks linked with passive smoking, for example, lung cancer and heart disease."
              }
            ]
          },
          {
            "linkId": "substanceStatus",
            "text": "Drug/substance use",
            "answer": [
              {
                "valueCoding": {
                  "system": "http://snomed.info/sct",
                  "code": "228368007",
                  "display": "Has never misused drugs"
                }
              }
            ]
          },
          {
            "linkId": "alcoholIntake",
            "text": "Alcohol use",
            "answer": [
              {
                "valueCoding": {
                  "system": "http://snomed.info/sct",
                  "code": "228274009",
                  "display": "Lifetime non-drinker"
                }
              }
            ]
          }
        ]
      }
    },
    {
      "fhir_comments": [
        "Social Context Household Encounter details"
      ],
      "fullUrl": "urn:uuid:a0b4e544-fc29-4953-91e6-8b09073b15f5",
      "resource": {
        "resourceType": "Encounter",
        "meta": {
          "profile": [
            "https://fhir.nhs.uk/STU3/StructureDefinition/CareConnect-DCH-Encounter-1"
          ]
        },
        "status": "finished",
        "subject": {
          "reference": "urn:uuid:5d5845f3-398f-474b-af59-14882fc7b0ca",
          "display": "DAWKINS, Jack"
        },
        "period": {
          "start": "2018-01-29"
        },
        "location": [
          {
            "location": {
              "reference": "urn:uuid:e3177167-40fc-4f1a-80f2-a2f17f18fde7",
              "display": "DURHAM SOCIAL SERVICES"
            }
          }
        ],
        "serviceProvider": {
          "reference": "urn:uuid:e3177167-40fc-4f1a-80f2-a2f17f18fde7",
          "display": "DURHAM SOCIAL SERVICES"
        }
      }
    },
    {
      "fhir_comments": [
        "Location where event took place"
      ],
      "fullUrl": "urn:uuid:e3177167-40fc-4f1a-80f2-a2f17f18fde7",
      "resource": {
        "resourceType": "Location",
        "meta": {
          "profile": [
            "https://fhir.hl7.org.uk/STU3/StructureDefinition/CareConnect-Location-1"
          ]
        },
        "identifier": [
          {
            "system": "https://fhir.nhs.uk/Id/ods-site-code",
            "value": "RX3QJ"
          }
        ],
        "name": "DURHAM SOCIAL SERVICES"
      }
    }
  ]
}