{
  "resourceType": "Bundle",
  "id": "66aa52a6-4882-11e8-842f-0ed5f89f718b",
  "meta": {
    "profile": [
      "https://fhir.nhs.uk/STU3/StructureDefinition/DCH-Bundle-1"
    ]
  },
  "type": "message",
  "entry": [
    {
      "fullUrl": "urn:uuid:85c8a1c5-a8a1-41c9-bb99-20956fa66218",
      "resource": {
        "resourceType": "MessageHeader",
        "id": "85c8a1c5-a8a1-41c9-bb99-20956fa66218",
        "meta": {
          "profile": [
            "https://fhir.nhs.uk/STU3/StructureDefinition/DCH-MessageHeader-1"
          ]
        },
        "extension": [
          {
            "url": "https://fhir.nhs.uk/STU3/StructureDefinition/Extension-DCH-MessageEventType-1",
            "valueCodeableConcept": {
              "coding": [
                {
                  "system": "https://fhir.nhs.uk/STU3/CodeSystem/DCH-MessageEventType-1",
                  "code": "new",
                  "display": "New event message"
                }
              ]
            }
          }
        ],
        "event": {
          "system": "https://fhir.nhs.uk/STU3/CodeSystem/DCH-ChildHealthEventType-1",
          "code": "CH026",
          "display": "Professional Comment"
        },
        "timestamp": "2017-02-14T15:00:00+00:00",
        "source": {
          "endpoint": "urn:nhs-uk:addressing:ods:A83627"
        },
        "responsible": {
          "reference": "urn:uuid:3ff6d789-af64-4d9c-aa1d-0087d29e9e1c",
          "display": "SILVERDALE FAMILY PRACTICE"
        },
        "focus": [
          {
            "reference": "urn:uuid:0b5365ea-5eb5-4119-bfad-c6dfe0874b1b"
          }
        ]
      }
    },
    {
      "fullUrl": "urn:uuid:3ff6d789-af64-4d9c-aa1d-0087d29e9e1c",
      "resource": {
        "resourceType": "Organization",
        "id": "3ff6d789-af64-4d9c-aa1d-0087d29e9e1c",
        "meta": {
          "profile": [
            "https://fhir.hl7.org.uk/STU3/StructureDefinition/CareConnect-Organization-1"
          ]
        },
        "identifier": [
          {
            "system": "https://fhir.nhs.uk/Id/ods-organization-code",
            "value": "A83627"
          }
        ],
        "name": "SILVERDALE FAMILY PRACTICE",
        "address": [
          {
            "line": [
              "FRONT STREET",
              "SOUTH HETTON"
            ],
            "city": "DURHAM",
            "district": "COUNTY DURHAM",
            "postalCode": "DH6 2TH"
          }
        ]
      }
    },
    {
      "fullUrl": "urn:uuid:5a293df7-b22f-41b6-8bf1-44248ea59edb",
      "resource": {
        "resourceType": "HealthcareService",
        "id": "5a293df7-b22f-41b6-8bf1-44248ea59edb",
        "meta": {
          "profile": [
            "https://fhir.nhs.uk/STU3/StructureDefinition/DCH-HealthcareService-1"
          ]
        },
        "providedBy": {
          "reference": "urn:uuid:3ff6d789-af64-4d9c-aa1d-0087d29e9e1c",
          "display": "SILVERDALE FAMILY PRACTICE"
        },
        "type": [
          {
            "coding": [
              {
                "system": "http://snomed.info/sct",
                "code": "1060971000000108",
                "display": "General practice service"
              }
            ]
          }
        ],
        "location": [
          {
            "reference": "urn:uuid:e3177167-40fc-4f1a-80f2-a2f17f18fde7"
          }
        ],
        "telecom": [
          {
            "system": "phone",
            "value": "0191 1231234"
          }
        ]
      }
    },
    {
      "fullUrl": "urn:uuid:5d5845f3-398f-474b-af59-14882fc7b0ca",
      "resource": {
        "resourceType": "Patient",
        "id": "5d5845f3-398f-474b-af59-14882fc7b0ca",
        "meta": {
          "profile": [
            "https://fhir.nhs.uk/STU3/StructureDefinition/CareConnect-DCH-Patient-1"
          ]
        },
        "identifier": [
          {
            "extension": [
              {
                "url": "https://fhir.hl7.org.uk/STU3/StructureDefinition/Extension-CareConnect-NHSNumberVerificationStatus-1",
                "valueCodeableConcept": {
                  "coding": [
                    {
                      "system": "https://fhir.hl7.org.uk/STU3/CodeSystem/CareConnect-NHSNumberVerificationStatus-1",
                      "code": "01",
                      "display": "Number present and verified"
                    }
                  ]
                }
              }
            ],
            "system": "https://fhir.nhs.uk/Id/nhs-number",
            "value": "9912003888"
          }
        ],
        "name": [
          {
            "use": "official",
            "family": "DAWKINS",
            "given": [
              "Jack"
            ]
          }
        ],
        "gender": "male",
        "birthDate": "2013-10-12",
        "_birthDate": {
          "extension": [
            {
              "url": "http://hl7.org/fhir/StructureDefinition/patient-birthTime",
              "valueDateTime": "2017-10-02T12:00:00+00:00"
            }
          ]
        },
        "address": [
          {
            "use": "home",
            "line": [
              "4 Sandmoor Drive"
            ],
            "city": "DURHAM",
            "postalCode": "DH1 2TF"
          }
        ]
      }
    },
    {
      "fullUrl": "urn:uuid:5812bce1-58c4-43c0-bd17-30d5a567d87e",
      "resource": {
        "resourceType": "Communication",
        "id": "5812bce1-58c4-43c0-bd17-30d5a567d87e",
        "meta": {
          "profile": [
            "https://fhir.nhs.uk/STU3/StructureDefinition/DCH-ProfessionalComment-Communication-1"
          ]
        },
        "status": "completed",
        "category": [
          {
            "coding": [
              {
                "system": "https://fhir.nhs.uk/STU3/CodeSystem/DCH-ProfessionalCommentType-1",
                "code": "006",
                "display": "Immunisations"
              }
            ]
          }
        ],
        "subject": {
          "reference": "urn:uuid:5d5845f3-398f-474b-af59-14882fc7b0ca"
        },
        "context": {
          "reference": "urn:uuid:0b5365ea-5eb5-4119-bfad-c6dfe0874b1b"
        },
        "sent": "2017-02-14",
        "sender": {
          "reference": "urn:uuid:5a293df7-b22f-41b6-8bf1-44248ea59edb"
        },
        "payload": [
          {
            "contentString": "Second MMR vacinnation administered to Jack"
          }
        ]
      }
    },
    {
      "fullUrl": "urn:uuid:0b5365ea-5eb5-4119-bfad-c6dfe0874b1b",
      "resource": {
        "resourceType": "Encounter",
        "id": "0b5365ea-5eb5-4119-bfad-c6dfe0874b1b",
        "meta": {
          "profile": [
            "https://fhir.nhs.uk/STU3/StructureDefinition/CareConnect-DCH-Encounter-1"
          ]
        },
        "status": "finished",
        "subject": {
          "reference": "urn:uuid:5d5845f3-398f-474b-af59-14882fc7b0ca",
          "display": "DAWKINS, Jack"
        },
        "period": {
          "start": "2017-02-14"
        },
        "location": [
          {
            "location": {
              "reference": "urn:uuid:e3177167-40fc-4f1a-80f2-a2f17f18fde7",
              "display": "SILVERDALE FAMILY PRACTICE"
            }
          }
        ],
        "serviceProvider": {
          "reference": "urn:uuid:e3177167-40fc-4f1a-80f2-a2f17f18fde7",
          "display": "SILVERDALE FAMILY PRACTICE"
        }
      }
    },
    {
      "fullUrl": "urn:uuid:285e33ce-918f-406b-b971-f253fe53160e",
      "resource": {
        "resourceType": "Practitioner",
        "id": "285e33ce-918f-406b-b971-f253fe53160e",
        "meta": {
          "profile": [
            "https://fhir.nhs.uk/STU3/StructureDefinition/CareConnect-DCH-Practitioner-1"
          ]
        },
        "identifier": [
          {
            "system": "https://fhir.nhs.uk/Id/sds-role-profile-id",
            "value": "PT2468"
          }
        ],
        "name": [
          {
            "family": "Emmanuel",
            "given": [
              "Gladys"
            ],
            "prefix": [
              "Dr."
            ]
          }
        ]
      }
    },
    {
      "fullUrl": "urn:uuid:b7e3cc3a-9120-49fe-801c-2793b80ca922",
      "resource": {
        "resourceType": "PractitionerRole",
        "id": "b7e3cc3a-9120-49fe-801c-2793b80ca922",
        "meta": {
          "profile": [
            "https://fhir.nhs.uk/STU3/StructureDefinition/CareConnect-DCH-PractitionerRole-1"
          ]
        },
        "identifier": [
          {
            "system": "https://fhir.nhs.uk/Id/sds-role-profile-id",
            "value": "PT2468"
          }
        ],
        "practitioner": {
          "reference": "urn:uuid:285e33ce-918f-406b-b971-f253fe53160e"
        },
        "organization": {
          "reference": "urn:uuid:e3177167-40fc-4f1a-80f2-a2f17f18fde7"
        }
      }
    },
    {
      "fullUrl": "urn:uuid:e3177167-40fc-4f1a-80f2-a2f17f18fde7",
      "resource": {
        "resourceType": "Location",
        "id": "e3177167-40fc-4f1a-80f2-a2f17f18fde7",
        "meta": {
          "profile": [
            "https://fhir.hl7.org.uk/STU3/StructureDefinition/CareConnect-Location-1"
          ]
        },
        "identifier": [
          {
            "system": "https://fhir.nhs.uk/Id/ods-site-code",
            "value": "A83627"
          }
        ],
        "name": "SILVERDALE FAMILY PRACTICE"
      }
    }
  ]
}