{
  "resourceType": "Bundle",
  "id": "2f7200aa-18b0-11e9-ab14-d663bd873d93",
  "meta": {
    "profile": [
      "https://fhir.nhs.uk/STU3/StructureDefinition/DCH-Bundle-1"
    ]
  },
  "type": "message",
  "entry": [
    {
      "fullUrl": "urn:uuid:08464f8a-18b1-11e9-ab14-d663bd873d93",
      "resource": {
        "resourceType": "MessageHeader",
        "meta": {
          "profile": [
            "https://fhir.nhs.uk/STU3/StructureDefinition/DCH-MessageHeader-1"
          ]
        },
        "extension": [
          {
            "url": "https://fhir.nhs.uk/STU3/StructureDefinition/Extension-DCH-MessageEventType-1",
            "valueCodeableConcept": {
              "coding": [
                {
                  "system": "https://fhir.nhs.uk/STU3/CodeSystem/DCH-MessageEventType-1",
                  "code": "new",
                  "display": "New event message"
                }
              ]
            }
          }
        ],
        "event": {
          "system": "https://fhir.nhs.uk/STU3/CodeSystem/DCH-ChildHealthEventType-1",
          "code": "CH036",
          "display": "Medication Administration"
        },
        "destination": [
          {
            "endpoint": "urn:nhs:addressing:asid:477121000325"
          }
        ],
        "timestamp": "2017-11-01T15:00:00+00:00",
        "source": {
          "endpoint": "urn:nhs:addressing:asid:300000000161"
        },
        "responsible": {
          "reference": "urn:uuid:436ef144-18b0-11e9-ab14-d663bd873d93",
          "display": "UNIVERSITY HOSPITAL OF NORTH DURHAM"
        },
        "focus": [
          {
            "reference": "urn:uuid:61be0090-18b0-11e9-ab14-d663bd873d93"
          }
        ]
      }
    },
    {
      "fhir_comments": [
        "Responsible for message content (Birth)"
      ],
      "fullUrl": "urn:uuid:436ef144-18b0-11e9-ab14-d663bd873d93",
      "resource": {
        "resourceType": "Organization",
        "meta": {
          "profile": [
            "https://fhir.hl7.org.uk/STU3/StructureDefinition/CareConnect-Organization-1"
          ]
        },
        "identifier": [
          {
            "system": "https://fhir.nhs.uk/Id/ods-organization-code",
            "value": "RX3EP"
          }
        ],
        "name": "UNIVERSITY HOSPITAL OF NORTH DURHAM",
        "address": [
          {
            "line": [
              "NORTH ROAD"
            ],
            "city": "DURHAM",
            "district": "COUNTY DURHAM",
            "postalCode": "DH1 5TW"
          }
        ]
      }
    },
    {
      "fhir_comments": [
        "Healthcare service used e.g GP, trust, etc.."
      ],
      "fullUrl": "urn:uuid:49fc0920-18b0-11e9-ab14-d663bd873d93",
      "resource": {
        "resourceType": "HealthcareService",
        "meta": {
          "profile": [
            "https://fhir.nhs.uk/STU3/StructureDefinition/DCH-HealthcareService-1"
          ]
        },
        "providedBy": {
          "reference": "urn:uuid:436ef144-18b0-11e9-ab14-d663bd873d93",
          "display": "UNIVERSITY HOSPITAL OF DURHAM "
        },
        "type": [
          {
            "coding": [
              {
                "system": "http://snomed.info/sct",
                "code": "714088003",
                "display": "Midwifery Service"
              }
            ]
          }
        ],
        "location": [
          {
            "reference": "urn:uuid:5237c7d2-18b0-11e9-ab14-d663bd873d93"
          }
        ],
        "telecom": [
          {
            "system": "phone",
            "value": "0191 1231234"
          }
        ]
      }
    },
    {
      "fhir_comments": [
        "Baby Patient"
      ],
      "fullUrl": "urn:uuid:5ab81c68-18b0-11e9-ab14-d663bd873d93",
      "resource": {
        "resourceType": "Patient",
        "meta": {
          "profile": [
            "https://fhir.nhs.uk/STU3/StructureDefinition/CareConnect-DCH-Patient-1"
          ]
        },
        "identifier": [
          {
            "extension": [
              {
                "url": "https://fhir.hl7.org.uk/STU3/StructureDefinition/Extension-CareConnect-NHSNumberVerificationStatus-1",
                "valueCodeableConcept": {
                  "coding": [
                    {
                      "system": "https://fhir.hl7.org.uk/STU3/CodeSystem/CareConnect-NHSNumberVerificationStatus-1",
                      "code": "01",
                      "display": "Number present and verified"
                    }
                  ]
                }
              }
            ],
            "system": "https://fhir.nhs.uk/Id/nhs-number",
            "value": "9912003888"
          }
        ],
        "name": [
          {
            "use": "official",
            "family": "DAWKINS",
            "given": [
              "Jack"
            ]
          }
        ],
        "gender": "male",
        "birthDate": "2017-10-02",
        "_birthDate": {
          "extension": [
            {
              "url": "http://hl7.org/fhir/StructureDefinition/patient-birthTime",
              "valueDateTime": "2017-10-02T20:12:00+00:00"
            }
          ]
        },
        "address": [
          {
            "use": "home",
            "line": [
              "4 Sandmoor Drive"
            ],
            "city": "DURHAM",
            "postalCode": "DH1 2TF"
          }
        ],
        "multipleBirthInteger": 1
      }
    },
    {
      "fhir_comments": [
        "Encounter details"
      ],
      "fullUrl": "urn:uuid:61be0090-18b0-11e9-ab14-d663bd873d93",
      "resource": {
        "resourceType": "Encounter",
        "meta": {
          "profile": [
            "https://fhir.nhs.uk/STU3/StructureDefinition/CareConnect-DCH-Encounter-1"
          ]
        },
        "status": "finished",
        "subject": {
          "reference": "urn:uuid:5ab81c68-18b0-11e9-ab14-d663bd873d93",
          "display": "DAWKINS, Jack"
        },
        "period": {
          "start": "2014-10-12"
        },
        "location": [
          {
            "location": {
              "reference": "urn:uuid:5237c7d2-18b0-11e9-ab14-d663bd873d93"
            }
          }
        ],
        "serviceProvider": {
          "reference": "urn:uuid:436ef144-18b0-11e9-ab14-d663bd873d93",
          "display": "UNIVERSITY HOSPITAL OF NORTH DURHAM"
        }
      }
    },
    {
      "fhir_comments": [
        "Location where event took place (Maternity Site)"
      ],
      "fullUrl": "urn:uuid:5237c7d2-18b0-11e9-ab14-d663bd873d93",
      "resource": {
        "resourceType": "Location",
        "meta": {
          "profile": [
            "https://fhir.nhs.uk/STU3/StructureDefinition/CareConnect-DCH-Delivery-Location-1"
          ]
        },
        "identifier": [
          {
            "system": "https://fhir.nhs.uk/Id/ods-site-code",
            "value": "RX3EP"
          }
        ]
      }
    },
    {
      "fhir_comments": [
        "Practitioner from Encounter"
      ],
      "fullUrl": "urn:uuid:66b2f600-18b0-11e9-ab14-d663bd873d93",
      "resource": {
        "resourceType": "Practitioner",
        "meta": {
          "profile": [
            "https://fhir.nhs.uk/STU3/StructureDefinition/CareConnect-DCH-Practitioner-1"
          ]
        },
        "name": [
          {
            "family": "BASHIR",
            "given": [
              "Julian"
            ],
            "prefix": [
              "Dr."
            ]
          }
        ]
      }
    },
    {
      "fhir_comments": [
        "PractitionerRole from Encounter"
      ],
      "fullUrl": "urn:uuid:9db5d050-18b0-11e9-ab14-d663bd873d93",
      "resource": {
        "resourceType": "PractitionerRole",
        "meta": {
          "profile": [
            "https://fhir.nhs.uk/STU3/StructureDefinition/CareConnect-DCH-PractitionerRole-1"
          ]
        },
        "practitioner": {
          "reference": "urn:uuid:66b2f600-18b0-11e9-ab14-d663bd873d93",
          "display": "Dr. Julian BASHIR"
        },
        "organization": {
          "reference": "urn:uuid:436ef144-18b0-11e9-ab14-d663bd873d93",
          "display": "UNIVERSITY HOSPITAL OF NORTH DURHAM"
        },
        "code": [
          {
            "coding": [
              {
                "system": "https://fhir.hl7.org.uk/STU3/CodeSystem/CareConnect-SDSJobRoleName-1",
                "code": "R0140",
                "display": "Senior House Officer"
              }
            ]
          }
        ]
      }
    },
    {
      "fullUrl": "urn:uuid:bb445128-18b0-11e9-ab14-d663bd873d93",
      "resource": {
        "resourceType": "MedicationAdministration",
        "meta": {
          "profile": [
            "https://fhir.nhs.uk/STU3/StructureDefinition/DCH-MedicationAdministration-1"
          ]
        },
        "status": "completed",
        "medicationReference": {
          "reference": "urn:uuid:7e4f74fa-18b0-11e9-ab14-d663bd873d93"
        },
        "subject": {
          "reference": "urn:uuid:5ab81c68-18b0-11e9-ab14-d663bd873d93"
        },
        "context": {
          "reference": "urn:uuid:61be0090-18b0-11e9-ab14-d663bd873d93"
        },
        "effectiveDateTime": "2017-11-01T14:45:00+00:00",
        "performer": [
          {
            "actor": {
              "reference": "urn:uuid:66b2f600-18b0-11e9-ab14-d663bd873d93"
            }
          }
        ],
        "dosage": {
          "text": "1 dose of 100mg paracetamol suspension administered by oral syringe",
          "route": {
            "coding": [
              {
                "system": "http://snomed.info/sct",
                "code": "26643006",
                "display": "Oral route"
              }
            ]
          },
          "dose": {
            "value": 100,
            "unit": "ml",
            "system": "http://unitsofmeasure.org"
          }
        }
      }
    },
    {
      "fullUrl": "urn:uuid:7e4f74fa-18b0-11e9-ab14-d663bd873d93",
      "resource": {
        "resourceType": "Medication",
        "meta": {
          "profile": [
            "https://fhir.nhs.uk/STU3/StructureDefinition/CareConnect-DCH-Medication-1"
          ]
        },
        "code": {
          "coding": [
            {
              "system": "http://snomed.info/sct",
              "code": "322246006",
              "display": "Paracetamol 100mg/ml oral solution sugar free"
            }
          ]
        }
      }
    },
    {
      "fullUrl": "urn:uuid:ca959600-18b0-11e9-ab14-d663bd873d93",
      "resource": {
        "resourceType": "MedicationAdministration",
        "meta": {
          "profile": [
            "https://fhir.nhs.uk/STU3/StructureDefinition/DCH-MedicationAdministration-1"
          ]
        },
        "status": "completed",
        "medicationReference": {
          "reference": "urn:uuid:8da06a22-18b0-11e9-ab14-d663bd873d93"
        },
        "subject": {
          "reference": "urn:uuid:5ab81c68-18b0-11e9-ab14-d663bd873d93"
        },
        "context": {
          "reference": "urn:uuid:61be0090-18b0-11e9-ab14-d663bd873d93"
        },
        "effectiveDateTime": "2017-11-01T14:45:58+00:00",
        "performer": [
          {
            "actor": {
              "reference": "urn:uuid:66b2f600-18b0-11e9-ab14-d663bd873d93"
            }
          }
        ],
        "dosage": {
          "text": "250ml Tetanus injection",
          "site": {
            "coding": [
              {
                "system": "http://snomed.info/sct",
                "code": "1403006",
                "display": "Vastus lateralis muscle"
              }
            ]
          },
          "route": {
            "coding": [
              {
                "system": "http://snomed.info/sct",
                "code": "78421000",
                "display": "Intramuscular route"
              }
            ]
          },
          "dose": {
            "value": 250,
            "unit": "ml",
            "system": "http://unitsofmeasure.org"
          }
        }
      }
    },
    {
      "fullUrl": "urn:uuid:8da06a22-18b0-11e9-ab14-d663bd873d93",
      "resource": {
        "resourceType": "Medication",
        "meta": {
          "profile": [
            "https://fhir.nhs.uk/STU3/StructureDefinition/CareConnect-DCH-Medication-1"
          ]
        },
        "code": {
          "coding": [
            {
              "system": "http://snomed.info/sct",
              "code": "9478811000001102",
              "display": "Tetanus immunoglobulin 250units/1ml solution for injection pre-filled syringes"
            }
          ]
        }
      }
    }
  ]
}