{
  "resourceType": "Bundle",
  "id": "97be8432-5a9a-4c71-a083-b337323b8d6d",
  "meta": {
    "profile": [
      "https://fhir.nhs.uk/STU3/StructureDefinition/DCH-Bundle-1"
    ]
  },
  "type": "message",
  "entry": [
    {
      "fullUrl": "urn:uuid:f9cd5599-09e9-4c4d-a307-aba745cf0704",
      "resource": {
        "resourceType": "MessageHeader",
        "meta": {
          "profile": [
            "https://fhir.nhs.uk/STU3/StructureDefinition/DCH-MessageHeader-1"
          ]
        },
        "extension": [
          {
            "url": "https://fhir.nhs.uk/STU3/StructureDefinition/Extension-DCH-MessageEventType-1",
            "valueCodeableConcept": {
              "coding": [
                {
                  "system": "https://fhir.nhs.uk/STU3/CodeSystem/DCH-MessageEventType-1",
                  "code": "new",
                  "display": "New event message"
                }
              ]
            }
          }
        ],
        "event": {
          "system": "https://fhir.nhs.uk/STU3/CodeSystem/DCH-ChildHealthEventType-1",
          "code": "CH019",
          "display": "Medication Statement"
        },
        "destination": [
          {
            "endpoint": "urn:nhs:addressing:asid:477121000325"
          }
        ],
        "timestamp": "2017-11-01T15:00:00+00:00",
        "source": {
          "endpoint": "urn:nhs:addressing:asid:300000000161"
        },
        "responsible": {
          "reference": "urn:uuid:52d626bc-1800-11e9-ab14-d663bd873d93",
          "display": "UNIVERSITY HOSPITAL OF NORTH DURHAM"
        },
        "focus": [
          {
            "reference": "urn:uuid:b080b4ee-1800-11e9-ab14-d663bd873d93"
          }
        ]
      }
    },
    {
      "fhir_comments": [
        "Responsible for message content (Birth)"
      ],
      "fullUrl": "urn:uuid:52d626bc-1800-11e9-ab14-d663bd873d93",
      "resource": {
        "resourceType": "Organization",
        "meta": {
          "profile": [
            "https://fhir.hl7.org.uk/STU3/StructureDefinition/CareConnect-Organization-1"
          ]
        },
        "identifier": [
          {
            "system": "https://fhir.nhs.uk/Id/ods-organization-code",
            "value": "RX3EP"
          }
        ],
        "name": "UNIVERSITY HOSPITAL OF NORTH DURHAM",
        "address": [
          {
            "line": [
              "NORTH ROAD"
            ],
            "city": "DURHAM",
            "district": "COUNTY DURHAM",
            "postalCode": "DH1 5TW"
          }
        ]
      }
    },
    {
      "fhir_comments": [
        "Healthcare service used e.g GP, trust, etc.."
      ],
      "fullUrl": "urn:uuid:e67db06a-1800-11e9-ab14-d663bd873d93",
      "resource": {
        "resourceType": "HealthcareService",
        "meta": {
          "profile": [
            "https://fhir.nhs.uk/STU3/StructureDefinition/DCH-HealthcareService-1"
          ]
        },
        "providedBy": {
          "reference": "urn:uuid:52d626bc-1800-11e9-ab14-d663bd873d93",
          "display": "UNIVERSITY HOSPITAL OF DURHAM "
        },
        "type": [
          {
            "coding": [
              {
                "system": "http://snomed.info/sct",
                "code": "714088003",
                "display": "Midwifery Service"
              }
            ]
          }
        ],
        "location": [
          {
            "reference": "urn:uuid:03a74642-1801-11e9-ab14-d663bd873d93"
          }
        ],
        "telecom": [
          {
            "system": "phone",
            "value": "0191 1231234"
          }
        ]
      }
    },
    {
      "fhir_comments": [
        "Baby Patient"
      ],
      "fullUrl": "urn:uuid:2cebc0be-1801-11e9-ab14-d663bd873d93",
      "resource": {
        "resourceType": "Patient",
        "meta": {
          "profile": [
            "https://fhir.nhs.uk/STU3/StructureDefinition/CareConnect-DCH-Patient-1"
          ]
        },
        "identifier": [
          {
            "extension": [
              {
                "url": "https://fhir.hl7.org.uk/STU3/StructureDefinition/Extension-CareConnect-NHSNumberVerificationStatus-1",
                "valueCodeableConcept": {
                  "coding": [
                    {
                      "system": "https://fhir.hl7.org.uk/STU3/CodeSystem/CareConnect-NHSNumberVerificationStatus-1",
                      "code": "01",
                      "display": "Number present and verified"
                    }
                  ]
                }
              }
            ],
            "system": "https://fhir.nhs.uk/Id/nhs-number",
            "value": "9912003888"
          }
        ],
        "name": [
          {
            "use": "official",
            "family": "DAWKINS",
            "given": [
              "Jack"
            ]
          }
        ],
        "gender": "male",
        "birthDate": "2017-10-02",
        "_birthDate": {
          "extension": [
            {
              "url": "http://hl7.org/fhir/StructureDefinition/patient-birthTime",
              "valueDateTime": "2017-10-02T20:12:00+00:00"
            }
          ]
        },
        "address": [
          {
            "use": "home",
            "line": [
              "4 Sandmoor Drive"
            ],
            "city": "DURHAM",
            "postalCode": "DH1 2TF"
          }
        ],
        "multipleBirthInteger": 1
      }
    },
    {
      "fhir_comments": [
        "Encounter details"
      ],
      "fullUrl": "urn:uuid:b080b4ee-1800-11e9-ab14-d663bd873d93",
      "resource": {
        "resourceType": "Encounter",
        "meta": {
          "profile": [
            "https://fhir.nhs.uk/STU3/StructureDefinition/CareConnect-DCH-Encounter-1"
          ]
        },
        "status": "finished",
        "subject": {
          "reference": "urn:uuid:2cebc0be-1801-11e9-ab14-d663bd873d93",
          "display": "DAWKINS, Jack"
        },
        "period": {
          "start": "2014-10-12"
        },
        "location": [
          {
            "location": {
              "reference": "urn:uuid:03a74642-1801-11e9-ab14-d663bd873d93"
            }
          }
        ],
        "serviceProvider": {
          "reference": "urn:uuid:52d626bc-1800-11e9-ab14-d663bd873d93",
          "display": "UNIVERSITY HOSPITAL OF NORTH DURHAM"
        }
      }
    },
    {
      "fhir_comments": [
        "Location where event took place (Maternity Site)"
      ],
      "fullUrl": "urn:uuid:03a74642-1801-11e9-ab14-d663bd873d93",
      "resource": {
        "resourceType": "Location",
        "meta": {
          "profile": [
            "https://fhir.nhs.uk/STU3/StructureDefinition/CareConnect-DCH-Delivery-Location-1"
          ]
        },
        "identifier": [
          {
            "system": "https://fhir.nhs.uk/Id/ods-site-code",
            "value": "RX3EP"
          }
        ]
      }
    },
    {
      "fhir_comments": [
        "Practitioner from Encounter"
      ],
      "fullUrl": "urn:uuid:b5afaa4a-1802-11e9-ab14-d663bd873d93",
      "resource": {
        "resourceType": "Practitioner",
        "meta": {
          "profile": [
            "https://fhir.nhs.uk/STU3/StructureDefinition/CareConnect-DCH-Practitioner-1"
          ]
        },
        "identifier": [
          {
            "system": "https://fhir.nhs.uk/Id/sds-role-profile-id",
            "value": "PT2468"
          }
        ],
        "name": [
          {
            "family": "BASHIR",
            "given": [
              "Julian"
            ],
            "prefix": [
              "Dr."
            ]
          }
        ]
      }
    },
    {
      "fhir_comments": [
        "List for Active Medications"
      ],
      "fullUrl": "urn:uuid:d0710501-2e32-4cbd-bd63-a14354bbcd0f",
      "resource": {
        "resourceType": "List",
        "meta": {
          "profile": [
            "https://fhir.nhs.uk/STU3/StructureDefinition/CareConnect-ITK-Medication-List-1"
          ]
        },
        "identifier": [
          {
            "system": "https://tools.ietf.org/html/rfc4122",
            "value": "cb8e31b2-15d4-4fe6-a690-13934348fbf1"
          }
        ],
        "status": "current",
        "mode": "snapshot",
        "title": "Medication Active List",
        "code": {
          "fhir_comments": [
            "\tCode to indicate the type of list"
          ],
          "coding": [
            {
              "system": "http://snomed.info/sct",
              "code": "1102411000000102",
              "display": "Active Medications"
            }
          ]
        },
        "subject": {
          "fhir_comments": [
            " Reference to the patient who is the subject of this list "
          ],
          "reference": "urn:uuid:2cebc0be-1801-11e9-ab14-d663bd873d93"
        },
        "encounter": {
          "fhir_comments": [
            " Reference to the Encounter where list was created "
          ],
          "reference": "urn:uuid:b080b4ee-1800-11e9-ab14-d663bd873d93"
        },
        "source": {
          "fhir_comments": [
            " Reference to the practitioner who created this list "
          ],
          "reference": "urn:uuid:b5afaa4a-1802-11e9-ab14-d663bd873d93"
        },
        "entry": [
          {
            "fhir_comments": [
              " An entry for an active medication carried in the MedicationStatement resource "
            ],
            "item": {
              "reference": "urn:uuid:1092404d-00c9-4f9e-b7df-9abbc8762c91"
            }
          },
          {
            "fhir_comments": [
              " An entry for an active medication carried in the MedicationStatement resource with change "
            ],
            "item": {
              "reference": "urn:uuid:934ac400-f197-4bbc-a307-5ce8d271d4dd"
            }
          }
        ]
      }
    },
    {
      "fhir_comments": [
        "Medication that has been changed"
      ],
      "fullUrl": "urn:uuid:934ac400-f197-4bbc-a307-5ce8d271d4dd",
      "resource": {
        "resourceType": "MedicationStatement",
        "meta": {
          "profile": [
            "https://fhir.nhs.uk/STU3/StructureDefinition/CareConnect-DCH-MedicationStatement-1"
          ]
        },
        "extension": [
          {
            "fhir_comments": [
              "Change details extension"
            ],
            "url": "https://fhir.hl7.org.uk/STU3/StructureDefinition/Extension-CareConnect-MedicationChangeSummary-1",
            "extension": [
              {
                "fhir_comments": [
                  "Change details extension"
                ],
                "url": "status",
                "valueCode": "Amended"
              },
              {
                "fhir_comments": [
                  "Change details extension"
                ],
                "url": "indicationForChange",
                "valueCodeableConcept": {
                  "coding": [
                    {
                      "system": "http://snomed.info/sct",
                      "code": "275929009",
                      "display": "Tablets too large to swallow"
                    }
                  ]
                }
              },
              {
                "fhir_comments": [
                  "Change details extension"
                ],
                "url": "dateChanged",
                "valueDateTime": "2018-07-21"
              },
              {
                "fhir_comments": [
                  "Change details extension"
                ],
                "url": "detailsOfAmendment",
                "valueString": "Changed from tablet form to solution as tablet were being crushed before taking"
              }
            ]
          }
        ],
        "context": {
          "reference": "urn:uuid:b080b4ee-1800-11e9-ab14-d663bd873d93"
        },
        "status": "active",
        "_status": {
          "fhir_comments": [
            "The state of the medication used that this statement is about."
          ]
        },
        "medicationReference": {
          "fhir_comments": [
            "Reference to medication"
          ],
          "reference": "urn:uuid:1f9df0bc-1806-11e9-ab14-d663bd873d93"
        },
        "effectivePeriod": {
          "start": "2018-07-21",
          "_start": {
            "fhir_comments": [
              " when started "
            ]
          }
        },
        "subject": {
          "fhir_comments": [
            "Reference to the patient as the subject of this medication"
          ],
          "reference": "urn:uuid:2cebc0be-1801-11e9-ab14-d663bd873d93"
        },
        "taken": "unk",
        "dosage": [
          {
            "text": "Take as needed. Do not exceed more than 5 doses per day",
            "route": {
              "fhir_comments": [
                "How drug should enter body showing SNOMED CT route codes",
                "Details of dose quantity and frequency"
              ],
              "coding": [
                {
                  "system": "http://snomed.info/sct",
                  "code": "26643006",
                  "display": "Oral"
                }
              ]
            }
          }
        ]
      }
    },
    {
      "fullUrl": "urn:uuid:1f9df0bc-1806-11e9-ab14-d663bd873d93",
      "resource": {
        "resourceType": "Medication",
        "meta": {
          "profile": [
            "https://fhir.nhs.uk/STU3/StructureDefinition/CareConnect-DCH-Medication-1"
          ]
        },
        "code": {
          "coding": [
            {
              "system": "http://snomed.info/sct",
              "code": "322246006",
              "display": "Paracetamol 100mg/ml oral solution sugar free"
            }
          ]
        }
      }
    },
    {
      "fhir_comments": [
        "Medication statement for a medication that is continued"
      ],
      "fullUrl": "urn:uuid:1092404d-00c9-4f9e-b7df-9abbc8762c91",
      "resource": {
        "resourceType": "MedicationStatement",
        "meta": {
          "profile": [
            "https://fhir.nhs.uk/STU3/StructureDefinition/CareConnect-DCH-MedicationStatement-1"
          ]
        },
        "context": {
          "reference": "urn:uuid:b080b4ee-1800-11e9-ab14-d663bd873d93"
        },
        "status": "active",
        "_status": {
          "fhir_comments": [
            "The state of the medication used that this statement is about."
          ]
        },
        "medicationReference": {
          "fhir_comments": [
            "Reference to medication"
          ],
          "reference": "urn:uuid:be4f73b4-2969-4ae8-8ff1-e2e798967f95"
        },
        "effectivePeriod": {
          "start": "2018-07-21",
          "_start": {
            "fhir_comments": [
              " when started "
            ]
          }
        },
        "subject": {
          "fhir_comments": [
            "Reference to the patient as the subject of this medication"
          ],
          "reference": "urn:uuid:2cebc0be-1801-11e9-ab14-d663bd873d93"
        },
        "taken": "unk",
        "dosage": [
          {
            "text": "Take two tablets daily",
            "additionalInstruction": [
              {
                "text": "Stop when course complete"
              }
            ],
            "route": {
              "fhir_comments": [
                "How drug should enter body showing SNOMED CT route codes",
                "Details of dose quantity and frequency"
              ],
              "coding": [
                {
                  "system": "http://snomed.info/sct",
                  "code": "26643006",
                  "display": "Oral"
                }
              ]
            }
          }
        ]
      }
    },
    {
      "fullUrl": "urn:uuid:be4f73b4-2969-4ae8-8ff1-e2e798967f95",
      "resource": {
        "resourceType": "Medication",
        "meta": {
          "profile": [
            "https://fhir.nhs.uk/STU3/StructureDefinition/CareConnect-DCH-Medication-1"
          ]
        },
        "code": {
          "coding": [
            {
              "system": "http://snomed.info/sct",
              "code": "407847009",
              "display": "Omeprazole 15mg gastro-resistant tablets"
            }
          ]
        }
      }
    },
    {
      "fhir_comments": [
        "List for discontinued"
      ],
      "fullUrl": "urn:uuid:a9dd608a-1812-11e9-ab14-d663bd873d93",
      "resource": {
        "resourceType": "List",
        "meta": {
          "profile": [
            "https://fhir.nhs.uk/STU3/StructureDefinition/CareConnect-ITK-Medication-List-1"
          ]
        },
        "identifier": [
          {
            "system": "https://tools.ietf.org/html/rfc4122",
            "value": "bee0b3e2-1812-11e9-ab14-d663bd873d93"
          }
        ],
        "status": "current",
        "mode": "snapshot",
        "title": "Medication Discontinued List",
        "code": {
          "fhir_comments": [
            "\tCode to indicate the type of list"
          ],
          "coding": [
            {
              "system": "http://snomed.info/sct",
              "code": "1102191000000100",
              "display": "Discontinued medications"
            }
          ]
        },
        "subject": {
          "fhir_comments": [
            " Reference to the patient who is the subject of this list "
          ],
          "reference": "urn:uuid:2cebc0be-1801-11e9-ab14-d663bd873d93"
        },
        "encounter": {
          "fhir_comments": [
            " Reference to the Encounter where list was created "
          ],
          "reference": "urn:uuid:b080b4ee-1800-11e9-ab14-d663bd873d93"
        },
        "source": {
          "fhir_comments": [
            " Reference to the practitioner who created this list "
          ],
          "reference": "urn:uuid:b5afaa4a-1802-11e9-ab14-d663bd873d93"
        },
        "entry": [
          {
            "fhir_comments": [
              " An entry for a discontinued medication carried in the MedicationStatement resource "
            ],
            "item": {
              "reference": "urn:uuid:f6f8fff0-1812-11e9-ab14-d663bd873d93"
            }
          }
        ]
      }
    },
    {
      "fhir_comments": [
        "Medication statement for a medication that is continued"
      ],
      "fullUrl": "urn:uuid:f6f8fff0-1812-11e9-ab14-d663bd873d93",
      "resource": {
        "resourceType": "MedicationStatement",
        "meta": {
          "profile": [
            "https://fhir.nhs.uk/STU3/StructureDefinition/CareConnect-DCH-MedicationStatement-1"
          ]
        },
        "context": {
          "reference": "urn:uuid:b080b4ee-1800-11e9-ab14-d663bd873d93"
        },
        "status": "stopped",
        "_status": {
          "fhir_comments": [
            "The state of the medication used that this statement is about."
          ]
        },
        "medicationReference": {
          "fhir_comments": [
            "Reference to medication"
          ],
          "reference": "urn:uuid:d2df65e0-1813-11e9-ab14-d663bd873d93"
        },
        "effectiveDateTime": "2018-07-21",
        "subject": {
          "fhir_comments": [
            "Reference to the patient as the subject of this medication"
          ],
          "reference": "urn:uuid:2cebc0be-1801-11e9-ab14-d663bd873d93"
        },
        "taken": "unk",
        "note": [
          {
            "text": "Stopped paracetamol tables and put patient on oral solution"
          }
        ]
      }
    },
    {
      "fullUrl": "urn:uuid:d2df65e0-1813-11e9-ab14-d663bd873d93",
      "resource": {
        "resourceType": "Medication",
        "meta": {
          "profile": [
            "https://fhir.nhs.uk/STU3/StructureDefinition/CareConnect-DCH-Medication-1"
          ]
        },
        "code": {
          "coding": [
            {
              "system": "http://snomed.info/sct",
              "code": "348468004",
              "display": "Paracetamol 150mg / Sodium salicylate 100mg tablets"
            }
          ]
        }
      }
    }
  ]
}