{
  "resourceType": "Bundle",
  "id": "91e5a484-e53b-427b-8317-130bd79fbb34",
  "meta": {
    "profile": [
      "https://fhir.nhs.uk/STU3/StructureDefinition/DCH-Bundle-1"
    ]
  },
  "type": "message",
  "entry": [
    {
      "fullUrl": "urn:uuid:388b6fdf-7dc9-46ea-a4c7-f0030c513605",
      "resource": {
        "resourceType": "MessageHeader",
        "meta": {
          "profile": [
            "https://fhir.nhs.uk/STU3/StructureDefinition/DCH-MessageHeader-1"
          ]
        },
        "extension": [
          {
            "url": "https://fhir.nhs.uk/STU3/StructureDefinition/Extension-DCH-MessageEventType-1",
            "valueCodeableConcept": {
              "coding": [
                {
                  "system": "https://fhir.nhs.uk/STU3/CodeSystem/DCH-MessageEventType-1",
                  "code": "new",
                  "display": "New event message"
                }
              ]
            }
          }
        ],
        "event": {
          "system": "https://fhir.nhs.uk/STU3/CodeSystem/DCH-ChildHealthEventType-1",
          "code": "CH004",
          "display": "Assessment Scales"
        },
        "destination": [
          {
            "endpoint": "urn:nhs:addressing:asid:477121000325"
          }
        ],
        "timestamp": "2017-11-01T15:00:00+00:00",
        "source": {
          "endpoint": "urn:nhs-uk:addressing:ods:A83627"
        },
        "responsible": {
          "reference": "urn:uuid:faad7a74-267f-4e07-b19b-a230d257e0cc",
          "display": "SILVERDALE FAMILY PRACTICE"
        },
        "focus": [
          {
            "reference": "urn:uuid:5dbe9e0a-d520-44ff-af10-3cbb8d6015c6"
          }
        ]
      }
    },
    {
      "fhir_comments": [
        "Responsible Org"
      ],
      "fullUrl": "urn:uuid:faad7a74-267f-4e07-b19b-a230d257e0cc",
      "resource": {
        "resourceType": "Organization",
        "meta": {
          "profile": [
            "https://fhir.hl7.org.uk/STU3/StructureDefinition/CareConnect-Organization-1"
          ]
        },
        "identifier": [
          {
            "system": "https://fhir.nhs.uk/Id/ods-organization-code",
            "value": "A83627"
          }
        ],
        "name": "SILVERDALE FAMILY PRACTICE",
        "address": [
          {
            "line": [
              "FRONT STREET",
              "SOUTH HETTON"
            ],
            "city": "DURHAM",
            "district": "COUNTY DURHAM",
            "postalCode": "DH6 2TH"
          }
        ]
      }
    },
    {
      "fhir_comments": [
        "Healthcare service used e.g GP, trust, etc.."
      ],
      "fullUrl": "urn:uuid:5a293df7-b22f-41b6-8bf1-44248ea59edb",
      "resource": {
        "resourceType": "HealthcareService",
        "meta": {
          "profile": [
            "https://fhir.nhs.uk/STU3/StructureDefinition/DCH-HealthcareService-1"
          ]
        },
        "providedBy": {
          "reference": "urn:uuid:faad7a74-267f-4e07-b19b-a230d257e0cc",
          "display": "SILVERDALE FAMILY PRACTICE"
        },
        "type": [
          {
            "coding": [
              {
                "system": "http://snomed.info/sct",
                "code": "1060971000000108",
                "display": "General practice service"
              }
            ]
          }
        ],
        "location": [
          {
            "reference": "urn:uuid:e3177167-40fc-4f1a-80f2-a2f17f18fde7"
          }
        ],
        "telecom": [
          {
            "system": "phone",
            "value": "0191 1231234"
          }
        ]
      }
    },
    {
      "fhir_comments": [
        "Child Details (Jack Dawkins)"
      ],
      "fullUrl": "urn:uuid:5d5845f3-398f-474b-af59-14882fc7b0ca",
      "resource": {
        "resourceType": "Patient",
        "meta": {
          "profile": [
            "https://fhir.nhs.uk/STU3/StructureDefinition/CareConnect-DCH-Patient-1"
          ]
        },
        "identifier": [
          {
            "extension": [
              {
                "url": "https://fhir.hl7.org.uk/STU3/StructureDefinition/Extension-CareConnect-NHSNumberVerificationStatus-1",
                "valueCodeableConcept": {
                  "coding": [
                    {
                      "system": "https://fhir.hl7.org.uk/STU3/CodeSystem/CareConnect-NHSNumberVerificationStatus-1",
                      "code": "01",
                      "display": "Number present and verified"
                    }
                  ]
                }
              }
            ],
            "system": "https://fhir.nhs.uk/Id/nhs-number",
            "value": "9912003888"
          }
        ],
        "name": [
          {
            "use": "official",
            "family": "DAWKINS",
            "given": [
              "Jack"
            ]
          }
        ],
        "gender": "male",
        "birthDate": "2013-10-12",
        "_birthDate": {
          "extension": [
            {
              "url": "http://hl7.org/fhir/StructureDefinition/patient-birthTime",
              "valueDateTime": "2013-10-12T12:00:00+00:00"
            }
          ]
        },
        "address": [
          {
            "use": "home",
            "line": [
              "4 Sandmoor Drive"
            ],
            "city": "DURHAM",
            "postalCode": "DH1 2TF"
          }
        ]
      }
    },
    {
      "fhir_comments": [
        "Assessment Scales"
      ],
      "fullUrl": "urn:uuid:eba23df6-23a1-48b8-80a7-c0d85cb16bbd",
      "resource": {
        "resourceType": "Observation",
        "meta": {
          "profile": [
            "https://fhir.nhs.uk/STU3/StructureDefinition/CareConnect-DCH-AssessmentScale-Observation-1"
          ]
        },
        "contained": [
          {
            "resourceType": "Observation",
            "id": "PersonalSocialScore",
            "meta": {
              "profile": [
                "https://fhir.nhs.uk/STU3/StructureDefinition/CareConnect-DCH-AssessmentScale-Observation-1"
              ]
            },
            "status": "final",
            "code": {
              "coding": [
                {
                  "system": "http://snomed.info/sct",
                  "code": "952901000000104",
                  "display": "Ages and Stages Questionnaires Third Edition 10 month questionnaire - personal-social score"
                }
              ]
            },
            "subject": {
              "reference": "urn:uuid:5d5845f3-398f-474b-af59-14882fc7b0ca"
            },
            "context": {
              "reference": "urn:uuid:5dbe9e0a-d520-44ff-af10-3cbb8d6015c6"
            },
            "performer": [
              {
                "reference": "urn:uuid:10efef65-ad4f-43ed-b848-5e79e6db21c0"
              }
            ],
            "valueQuantity": {
              "value": 8
            }
          },
          {
            "resourceType": "Observation",
            "id": "CommunicationScore",
            "meta": {
              "profile": [
                "https://fhir.nhs.uk/STU3/StructureDefinition/CareConnect-DCH-AssessmentScale-Observation-1"
              ]
            },
            "status": "final",
            "code": {
              "coding": [
                {
                  "system": "http://snomed.info/sct",
                  "code": "953161000000105",
                  "display": "Ages and Stages Questionnaires Third Edition 22 month questionnaire - communication score"
                }
              ]
            },
            "subject": {
              "reference": "urn:uuid:5d5845f3-398f-474b-af59-14882fc7b0ca"
            },
            "context": {
              "reference": "urn:uuid:5dbe9e0a-d520-44ff-af10-3cbb8d6015c6"
            },
            "performer": [
              {
                "reference": "urn:uuid:10efef65-ad4f-43ed-b848-5e79e6db21c0"
              }
            ],
            "valueQuantity": {
              "value": 25
            }
          }
        ],
        "status": "final",
        "code": {
          "coding": [
            {
              "system": "http://snomed.info/sct",
              "code": "716619000",
              "display": "Ages and Stages Questionnaires Third Edition score"
            }
          ]
        },
        "subject": {
          "reference": "urn:uuid:5d5845f3-398f-474b-af59-14882fc7b0ca"
        },
        "context": {
          "reference": "urn:uuid:5dbe9e0a-d520-44ff-af10-3cbb8d6015c6"
        },
        "performer": [
          {
            "reference": "urn:uuid:10efef65-ad4f-43ed-b848-5e79e6db21c0"
          }
        ],
        "related": [
          {
            "fhir_comments": [
              "Assessment Subscale 1 - Personal Social Score"
            ],
            "type": "derived-from",
            "target": {
              "reference": "#PersonalSocialScore",
              "display": "Personal Social Score"
            }
          },
          {
            "fhir_comments": [
              "Assessment Subscale 2 - Communication Score"
            ],
            "type": "derived-from",
            "target": {
              "reference": "#CommunicationScore",
              "display": "Communication Score"
            }
          }
        ]
      }
    },
    {
      "fullUrl": "urn:uuid:5dbe9e0a-d520-44ff-af10-3cbb8d6015c6",
      "resource": {
        "resourceType": "Encounter",
        "meta": {
          "profile": [
            "https://fhir.nhs.uk/STU3/StructureDefinition/CareConnect-DCH-Encounter-1"
          ]
        },
        "status": "finished",
        "type": [
          {
            "coding": [
              {
                "system": "https://fhir.nhs.uk/STU3/CodeSystem/DCH-ChildHealthEncounterType-1",
                "code": "0028",
                "display": "GP Appointment"
              }
            ]
          }
        ],
        "subject": {
          "reference": "urn:uuid:5d5845f3-398f-474b-af59-14882fc7b0ca",
          "display": "DAWKINS, Jack"
        },
        "period": {
          "start": "2017-01-29"
        },
        "location": [
          {
            "location": {
              "reference": "urn:uuid:e3177167-40fc-4f1a-80f2-a2f17f18fde7",
              "display": "SILVERDALE FAMILY PRACTICE"
            }
          }
        ],
        "serviceProvider": {
          "reference": "urn:uuid:faad7a74-267f-4e07-b19b-a230d257e0cc",
          "display": "SILVERDALE FAMILY PRACTICE"
        }
      }
    },
    {
      "fhir_comments": [
        "Practitioner"
      ],
      "fullUrl": "urn:uuid:10efef65-ad4f-43ed-b848-5e79e6db21c0",
      "resource": {
        "resourceType": "Practitioner",
        "meta": {
          "profile": [
            "https://fhir.nhs.uk/STU3/StructureDefinition/CareConnect-DCH-Practitioner-1"
          ]
        },
        "identifier": [
          {
            "system": "https://fhir.nhs.uk/Id/sds-role-profile-id",
            "value": "PT2468"
          }
        ],
        "name": [
          {
            "family": "Strange",
            "given": [
              "Stephen"
            ],
            "prefix": [
              "Dr."
            ]
          }
        ]
      }
    },
    {
      "fhir_comments": [
        "Practitioner Role"
      ],
      "fullUrl": "urn:uuid:b7e3cc3a-9120-49fe-801c-2793b80ca922",
      "resource": {
        "resourceType": "PractitionerRole",
        "meta": {
          "profile": [
            "https://fhir.nhs.uk/STU3/StructureDefinition/CareConnect-DCH-PractitionerRole-1"
          ]
        },
        "identifier": [
          {
            "system": "https://fhir.nhs.uk/Id/sds-role-profile-id",
            "value": "PT2468"
          }
        ],
        "practitioner": {
          "reference": "urn:uuid:10efef65-ad4f-43ed-b848-5e79e6db21c0"
        },
        "organization": {
          "reference": "urn:uuid:e3177167-40fc-4f1a-80f2-a2f17f18fde7"
        }
      }
    },
    {
      "fhir_comments": [
        "Location where event took place"
      ],
      "fullUrl": "urn:uuid:e3177167-40fc-4f1a-80f2-a2f17f18fde7",
      "resource": {
        "resourceType": "Location",
        "meta": {
          "profile": [
            "https://fhir.hl7.org.uk/STU3/StructureDefinition/CareConnect-Location-1"
          ]
        },
        "identifier": [
          {
            "system": "https://fhir.nhs.uk/Id/ods-site-code",
            "value": "A83627"
          }
        ],
        "name": "SILVERDALE FAMILY PRACTICE"
      }
    }
  ]
}