{"resourceType":"Bundle","id":"4f67281a-e1b8-11e8-9f32-f2801f1b9fd1","meta":{"profile":["https://fhir.nhs.uk/STU3/StructureDefinition/EMS-Bundle-1"]},"type":"message","entry":[{"fullUrl":"urn:uuid:4399a596-d1ee-11e8-a8d5-f2801f1b9fd1","resource":{"resourceType":"MessageHeader","id":"4399a596-d1ee-11e8-a8d5-f2801f1b9fd1","meta":{"profile":["https://fhir.nhs.uk/STU3/StructureDefinition/EMS-MessageHeader-1"]},"extension":[{"url":"https://fhir.nhs.uk/STU3/StructureDefinition/Extension-EMS-MessageEventType-1","valueCodeableConcept":{"coding":[{"system":"https://fhir.nhs.uk/STU3/CodeSystem/EMS-MessageEventType-1","code":"new","display":"New event message"}]}}],"event":{"system":"https://fhir.nhs.uk/STU3/CodeSystem/EMS-EventType-1","code":"PDS004","display":"PDS Person Death"},"timestamp":"2017-11-03T15:00:00+00:00","source":{"endpoint":"urn:nhs:addressing:asid:477121000323"},"responsible":{"reference":"https://directory.spineservices.nhs.uk/STU3/Organization/X26","display":"NHS DIGITAL"},"focus":[{"reference":"urn:uuid:4399a6c2-d1ee-11e8-a8d5-f2801f1b9fd1"}]}},{"fullUrl":"urn:uuid:4399ae9c-d1ee-11e8-a8d5-f2801f1b9fd1","resource":{"resourceType":"HealthcareService","id":"4399ae9c-d1ee-11e8-a8d5-f2801f1b9fd1","meta":{"profile":["https://fhir.nhs.uk/STU3/StructureDefinition/EMS-HealthcareService-1"]},"providedBy":{"reference":"https://directory.spineservices.nhs.uk/STU3/Organization/X26","display":"NHS DIGITAL"},"type":[{"coding":[{"system":"https://fhir.nhs.uk/STU3/CodeSystem/EMS-HealthcareServiceType-1","code":"PDS","display":"Personal Demographics Service"}]}]}},{"fullUrl":"urn:uuid:4399a6c2-d1ee-11e8-a8d5-f2801f1b9fd1","resource":{"resourceType":"Communication","id":"4399a6c2-d1ee-11e8-a8d5-f2801f1b9fd1","meta":{"profile":["https://fhir.nhs.uk/STU3/StructureDefinition/EMS-Communication-1"]},"status":"completed","subject":{"reference":"urn:uuid:4399b37e-d1ee-11e8-a8d5-f2801f1b9fd1","display":"JONES, Jack"},"sent":"2017-11-03T00:00:00+00:00","payload":[{"contentReference":{"reference":"urn:uuid:4399b37e-d1ee-11e8-a8d5-f2801f1b9fd1","display":"JONES, Jack"}}]}},{"fullUrl":"urn:uuid:4399b37e-d1ee-11e8-a8d5-f2801f1b9fd1","resource":{"resourceType":"Patient","id":"4399b37e-d1ee-11e8-a8d5-f2801f1b9fd1","meta":{"profile":["https://fhir.nhs.uk/STU3/StructureDefinition/CareConnect-EMS-Patient-1"]},"extension":[{"url":"https://fhir.hl7.org.uk/STU3/StructureDefinition/Extension-CareConnect-DeathNotificationStatus-1","extension":[{"url":"deathNotificationStatus","valueCodeableConcept":{"coding":[{"system":"https://fhir.hl7.org.uk/STU3/CodeSystem/CareConnect-DeathNotificationStatus-1","code":"U"}]}},{"url":"systemEffectiveDate","valueDateTime":"2017-11-03T00:00:00+00:00"}]}],"identifier":[{"extension":[{"url":"https://fhir.hl7.org.uk/STU3/StructureDefinition/Extension-CareConnect-NHSNumberVerificationStatus-1","valueCodeableConcept":{"coding":[{"system":"https://fhir.hl7.org.uk/STU3/CareConnect-NHSNumberVerificationStatus-1","code":"01","display":"Number present and verified"}]}}],"system":"https://fhir.nhs.uk/Id/nhs-number","value":"6101231234"}],"name":[{"use":"official","family":"JONES","given":["Jack"]}],"gender":"male","address":[{"use":"home","line":["4 Sandmoor Drive"],"city":"LEEDS","postalCode":"LS17 7DF"}]}}]}