{"resourceType":"Bundle","id":"ef6e30f1-5a42-4030-841b-edb864ffbb7b","meta":{"profile":["https://fhir.nhs.uk/STU3/StructureDefinition/DCH-Bundle-1"]},"type":"message","entry":[{"fullUrl":"urn:uuid:ef6e30f1-5a42-4030-841b-edb864ffbb7b","resource":{"resourceType":"MessageHeader","id":"ef6e30f1-5a42-4030-841b-edb864ffbb7b","meta":{"versionId":"1","profile":["https://fhir.nhs.uk/STU3/StructureDefinition/Event-MessageHeader-1"]},"extension":[{"url":"https://fhir.nhs.uk/STU3/StructureDefinition/Extension-MessageEventType-1","valueCodeableConcept":{"coding":[{"system":"https://fhir.nhs.uk/STU3/CodeSystem/MessageEventType-1","code":"new","display":"New event message"}]}}],"event":{"system":"https://fhir.nhs.uk/STU3/CodeSystem/EventType-1","code":"additional-demographics-1","display":"Additional Demographics"},"timestamp":"2017-11-01T15:00:00+00:00","source":{"endpoint":"urn:nhs-uk:addressing:ods:A83627"},"responsible":{"reference":"urn:uuid:3ff6d789-af64-4d9c-aa1d-0087d29e9e1c","display":"SILVERDALE FAMILY PRACTICE"},"focus":[{"reference":"urn:uuid:12779557-9033-4213-876f-69a670cdf35d"}]}},{"fullUrl":"urn:uuid:3ff6d789-af64-4d9c-aa1d-0087d29e9e1c","resource":{"resourceType":"Organization","id":"3ff6d789-af64-4d9c-aa1d-0087d29e9e1c","meta":{"profile":["https://fhir.hl7.org.uk/STU3/StructureDefinition/CareConnect-Organization-1"]},"identifier":[{"system":"https://fhir.nhs.uk/Id/ods-organization-code","value":"A83627"}],"name":"SILVERDALE FAMILY PRACTICE","address":[{"line":["FRONT STREET","SOUTH HETTON"],"city":"DURHAM","district":"COUNTY DURHAM","postalCode":"DH6 2TH"}]}},{"fullUrl":"urn:uuid:47032621-220a-433e-9b64-94056e988730","resource":{"resourceType":"HealthcareService","id":"47032621-220a-433e-9b64-94056e988730","meta":{"profile":["https://fhir.nhs.uk/STU3/StructureDefinition/CareConnect-HealthcareService-1"]},"providedBy":{"reference":"urn:uuid:3ff6d789-af64-4d9c-aa1d-0087d29e9e1c","display":"SILVERDALE FAMILY PRACTICE"},"type":[{"coding":[{"system":"http://snomed.info/sct","code":"1060971000000108","display":"General practice service"}]}],"location":[{"reference":"urn:uuid:e3177167-40fc-4f1a-80f2-a2f17f18fde7"}],"telecom":[{"system":"phone","value":"0191 1231234"}]}},{"fullUrl":"urn:uuid:5d5845f3-398f-474b-af59-14882fc7b0ca","resource":{"resourceType":"Patient","id":"5d5845f3-398f-474b-af59-14882fc7b0ca","meta":{"profile":["https://fhir.nhs.uk/STU3/StructureDefinition/CareConnect-Patient-1"]},"identifier":[{"extension":[{"url":"https://fhir.hl7.org.uk/STU3/StructureDefinition/Extension-CareConnect-NHSNumberVerificationStatus-1","valueCodeableConcept":{"coding":[{"system":"https://fhir.hl7.org.uk/STU3/CodeSystem/CareConnect-NHSNumberVerificationStatus-1","code":"01","display":"Number present and verified"}]}}],"system":"https://fhir.nhs.uk/Id/nhs-number","value":"9912003888"}],"name":[{"use":"official","family":"DAWKINS","given":["Jack"]}],"birthDate":"2013-10-12","_birthDate":{"extension":[{"url":"http://hl7.org/fhir/StructureDefinition/patient-birthTime","valueDateTime":"2017-10-02T12:00:00+00:00"}]}}},{"fullUrl":"urn:uuid:12779557-9033-4213-876f-69a670cdf35d","resource":{"resourceType":"Encounter","id":"12779557-9033-4213-876f-69a670cdf35d","meta":{"profile":["https://fhir.nhs.uk/STU3/StructureDefinition/CareConnect-Encounter-1"]},"status":"finished","subject":{"reference":"urn:uuid:5d5845f3-398f-474b-af59-14882fc7b0ca","display":"DAWKINS, Jack"},"period":{"start":"2017-10-01"},"location":[{"location":{"reference":"urn:uuid:e3177167-40fc-4f1a-80f2-a2f17f18fde7","display":"SILVERDALE FAMILY PRACTICE"}}],"serviceProvider":{"reference":"urn:uuid:3ff6d789-af64-4d9c-aa1d-0087d29e9e1c","display":"SILVERDALE FAMILY PRACTICE"}}},{"fullUrl":"urn:uuid:e3177167-40fc-4f1a-80f2-a2f17f18fde7","resource":{"resourceType":"Location","id":"e3177167-40fc-4f1a-80f2-a2f17f18fde7","meta":{"profile":["https://fhir.hl7.org.uk/STU3/StructureDefinition/CareConnect-Location-1"]},"identifier":[{"system":"https://fhir.nhs.uk/Id/ods-site-code","value":"A83627"}],"name":"SILVERDALE FAMILY PRACTICE"}}]}