{"resourceType":"Bundle","id":"d730b478-d881-4cd4-b3a1-6abbb761de5e","meta":{"lastUpdated":"2017-05-11T18:38:00+00:00","profile":["https://fhir.nhs.uk/STU3/StructureDefinition/ITK-Document-Bundle-1"]},"identifier":{"system":"https://tools.ietf.org/html/rfc4122","value":"f18f5330-a1e0-4f34-9e7d-3fcf6e3f0b8b"},"type":"document","entry":[{"fullUrl":"urn:uuid:1640ce91-05db-4174-aa9a-3db6b4a205c2","resource":{"resourceType":"Composition","id":"1640ce91-05db-4174-aa9a-3db6b4a205c2","meta":{"profile":["https://fhir.nhs.uk/STU3/StructureDefinition/CareConnect-ITK-OPL-Composition-1"]},"extension":[{"url":"https://fhir.hl7.org.uk/STU3/StructureDefinition/Extension-CareConnect-CareSettingType-1","valueCodeableConcept":{"coding":[{"system":"http://snomed.info/sct","code":"3621000175101","display":"Rheumatology service"}]}}],"identifier":{"system":"https://tools.ietf.org/html/rfc4122","value":"94a7c4b9-1e92-4b3b-bf6a-5e3a9c35d0d5"},"status":"final","type":{"coding":[{"system":"http://snomed.info/sct","code":"823681000000100","display":"Outpatient letter"}]},"subject":{"reference":"urn:uuid:bad2cc22-8186-437c-9531-68ff1e89104d"},"encounter":{"reference":"urn:uuid:3abcaae6-dfbc-4e6d-80ed-912e64f3052f"},"date":"2017-05-11T14:38:00+00:00","author":[{"reference":"urn:uuid:9aaf5503-c48e-4ff8-9365-85f06295a11b"}],"title":"Rheumatology Service Outpatient letter","custodian":{"reference":"urn:uuid:1cb3ed43-370c-4a1b-a6d4-1fab57f1646f"},"section":[{"title":"Allergies and adverse reactions","code":{"coding":[{"system":"http://snomed.info/sct","code":"886921000000105","display":"Allergies and adverse reactions"}]},"text":{"status":"generated","div":"<div xmlns=\"http://www.w3.org/1999/xhtml\"><table width=\"100%\"><tbody><tr><th>Causative agent</th><td>No known allergy</td></tr></tbody></table></div>"},"entry":[{"reference":"urn:uuid:57529fe5-9ab9-417c-bb7a-d616a3399c36"}]},{"title":"Attendance details","code":{"coding":[{"system":"http://snomed.info/sct","code":"1077881000000105","display":"Attendance details"}]},"text":{"status":"additional","div":"<div xmlns=\"http://www.w3.org/1999/xhtml\"><table width=\"100%\"><tbody><tr><td colspan=\"2\" style=\"width:100%\">Dear Dr. O'Reilly<br />Thank you for referring Miss Gently to my rheumatology outpatient clinic.</td></tr><tr><th>Date and time of contact</th><td>11-May-2017 13:00</td></tr><tr><th>Contact type</th><td>First attendance face to face</td></tr><tr><th>Consultation method</th><td>Face-to-face</td></tr><tr><th>Responsible healthcare professional</th><td>Dr H.H. Crippen (Consultant Rheumatologist)</td></tr><tr><th>Specialty</th><td>Rheumatology</td></tr><tr><th>Service</th><td>Rheumatology service</td></tr><tr><th>Seen by</th><td><p>Prefix: Dr</p><p>Given Name: H.H.</p><p>Family Name: Crippen</p><p>Role: Consultant Rheumatologist</p><p>Tel: 01234 569879 (Work)</p></td></tr><tr><th>Outcome of outpatient attendance</th><td>Appointment to be made at a later date</td></tr></tbody></table></div>"},"entry":[{"reference":"urn:uuid:3abcaae6-dfbc-4e6d-80ed-912e64f3052f"}]},{"title":"Clinical review of systems","code":{"coding":[{"system":"http://snomed.info/sct","code":"887121000000105","display":"Review of systems"}]},"text":{"status":"additional","div":"<div xmlns=\"http://www.w3.org/1999/xhtml\"><table width=\"100%\"><tbody><tr><th>Clinical review of systems</th><td>Poor Sleep</td></tr></tbody></table></div>"}},{"title":"Clinical summary","code":{"coding":[{"system":"http://snomed.info/sct","code":"887181000000106","display":"Clinical summary"}]},"text":{"status":"additional","div":"<div xmlns=\"http://www.w3.org/1999/xhtml\"><table width=\"100%\"><tbody><tr><th>Clinical summary</th><td>Symptoms are unlikely to improve until sleep disturbance is tackled. I suggest Amitriptyline is prescribed.</td></tr></tbody></table></div>"}},{"title":"Diagnoses","code":{"coding":[{"system":"http://snomed.info/sct","code":"887161000000102","display":"Diagnoses"}]},"text":{"status":"additional","div":"<div xmlns=\"http://www.w3.org/1999/xhtml\"><table width=\"100%\"><tbody><tr><th>Diagnosis name</th><td>Multiple joint pain</td></tr></tbody></table><table width=\"100%\"><tbody><tr><th>Diagnosis name</th><td>Fatigue</td></tr><tr><th>Comment</th><td>No evidence of inflammatory arthritis</td></tr></tbody></table><table width=\"100%\"><tbody><tr><th>Diagnosis name</th><td>Type 1 diabetes mellitus</td></tr></tbody></table><table width=\"100%\"><tbody><tr><th>Diagnosis name</th><td>Hypothyroidism</td></tr></tbody></table></div>"},"entry":[{"reference":"urn:uuid:f0f67e53-647f-4216-933a-4ebd2c257969"}]},{"title":"Distribution list","code":{"coding":[{"system":"http://snomed.info/sct","code":"887261000000109","display":"Distribution list"}]},"text":{"status":"additional","div":"<div xmlns=\"http://www.w3.org/1999/xhtml\"><table width=\"100%\"><tbody><tr><th>Name</th><td><p>Prefix: Dr</p><p>Given Name: C</p><p>Family Name: O'Reilly</p></td></tr><tr><th>Role</th><td>General Medical Practitioner</td></tr><tr><th>Organisation name</th><td>Canvas Health Centre</td></tr></tbody></table><table width=\"100%\"><tbody><tr><th>Name</th><td><p>Prefix: Miss</p><p>Given Name: Ophelia</p><p>Family Name: Gently</p></td></tr></tbody></table></div>"},"entry":[{"reference":"urn:uuid:37fdbe18-3dd5-4b37-b090-a2f222bc968c"},{"reference":"urn:uuid:bad2cc22-8186-437c-9531-68ff1e89104d"}]},{"title":"Examination finding","code":{"coding":[{"system":"http://snomed.info/sct","code":"715851000000102","display":"Examination findings"}]},"text":{"status":"additional","div":"<div xmlns=\"http://www.w3.org/1999/xhtml\"><table width=\"100%\"><tbody><tr><th>Examination findings</th><td>Musculoskeletal system - Trapezius discomfort on elevation of the shoulders. Discomfort on active neck movements.</td></tr></tbody></table></div>"}},{"title":"GP practice","code":{"coding":[{"system":"http://snomed.info/sct","code":"886711000000101","display":"GP practice"}]},"text":{"status":"additional","div":"<div xmlns=\"http://www.w3.org/1999/xhtml\"><table width=\"100%\"><tbody><tr><th>GP name</th><td><p>Prefix: Dr</p><p>Given Name: C</p><p>Family Name: O'Reilly</p></td></tr><tr><th>GP practice details</th><td><p>Name: Canvas Health Centre</p><p>Address:</p><p>Address Line: 27, Acacia Road</p><p>Post Code: BM9 6PM</p></td></tr></tbody></table></div>"},"entry":[{"reference":"urn:uuid:5c2e339d-3b3c-4de8-b61c-00cc9a4d6e41"}]},{"title":"History","code":{"coding":[{"system":"http://snomed.info/sct","code":"717121000000105","display":"History"}]},"text":{"status":"additional","div":"<div xmlns=\"http://www.w3.org/1999/xhtml\"><table width=\"100%\"><tbody><tr><th>Presenting complaints or issue</th><td>Miss Gently has had left wrist pain since December 2016. Since then she has also had right wrist pain and aching in the shoulders and knees. She describes tingling and burning in the forearms and in the calves and shins. Her symptoms are gradually worsening and they are now constant. She feels tired all the time and has broken unrefreshing sleep. She has been diagnosed with Type 1 diabetes and hypothyroidism.</td></tr></tbody></table></div>"}},{"title":"Information and advice given","code":{"coding":[{"system":"http://snomed.info/sct","code":"1052951000000105","display":"Information and advice given"}]},"text":{"status":"additional","div":"<div xmlns=\"http://www.w3.org/1999/xhtml\"><table width=\"100%\"><tbody><tr><th>Information and advice given</th><td>The patient was advised that previous abnormal blood results are not of any clinical significance other than reflecting known diagnosis of thyroid disease.</td></tr></tbody></table></div>"}},{"title":"Investigation results","code":{"coding":[{"system":"http://snomed.info/sct","code":"1082101000000102","display":"Investigation results"}]},"text":{"status":"additional","div":"<div xmlns=\"http://www.w3.org/1999/xhtml\"><table width=\"100%\"><tbody><tr><th>Investigation</th><td>Antinuclear antibodies</td></tr><tr><th>Investigation result</th><td>Normal</td></tr></tbody></table><table width=\"100%\"><tbody><tr><th>Investigation</th><td>Complement levels</td></tr><tr><th>Investigation result</th><td>Normal</td></tr></tbody></table><table width=\"100%\"><tbody><tr><th>Investigation</th><td>Immunoglobins</td></tr><tr><th>Investigation result</th><td>Normal</td></tr></tbody></table></div>"}},{"title":"Medications and medical devices","code":{"coding":[{"system":"http://snomed.info/sct","code":"933361000000108","display":"Medications and medical devices"}]},"text":{"status":"additional","div":"<div xmlns=\"http://www.w3.org/1999/xhtml\"><table width=\"100%\"><tbody><tr><td style=\"width:100%\">(only changes to medications and medical devices \r\nas a result of the outpatient encounter are included)</td></tr></tbody></table><table width=\"100%\"><tbody><tr><th>Medication name</th><td>Amitriptyline 10mg tablets (Actavis UK Ltd)</td></tr><tr><th>Form</th><td>Tablet</td></tr><tr><th>Route</th><td>Oral</td></tr><tr><th>Dose amount description</th><td>1 x 10mg</td></tr><tr><th>Dose timing description</th><td>Once per day</td></tr><tr><th>Additional instruction</th><td>To be taken one hour before bed.</td></tr><tr><th>Start date/time</th><td>11/05/17</td></tr><tr><th>End date/time</th><td>23/05/17</td></tr><tr><th>Indication</th><td>Sleep disturbance</td></tr><tr><th>Comment/recommendation</th><td>Titrating upwards according to response and tolerance. Patient given 2xweek prescription in clinic. GP to please review in 2xweeks and renew or amend prescription as necessary.</td></tr><tr><th>Status</th><td>Added</td></tr></tbody></table></div>"},"entry":[{"reference":"urn:uuid:cef7f8d5-78e3-4866-89f1-62470d6fd636"}]},{"title":"Participation in research","code":{"coding":[{"system":"http://snomed.info/sct","code":"886751000000102","display":"Participation in research"}]},"text":{"status":"additional","div":"<div xmlns=\"http://www.w3.org/1999/xhtml\"><table width=\"100%\"><tbody><tr><th>Name of research study</th><td><a href=\"http://www.kcl.ac.uk/lsm/research/divisions/diiid/departments/rheumatology/research/clinical/current/apippra/apippra.aspx\">\r\n           APIPPRA</a></td></tr></tbody></table></div>"}},{"title":"Patient and carer concerns, expectations and wishes","code":{"coding":[{"system":"http://snomed.info/sct","code":"1052941000000107","display":"Patient and carer concerns, expectations and wishes"}]},"text":{"status":"additional","div":"<div xmlns=\"http://www.w3.org/1999/xhtml\"><table width=\"100%\"><tbody><tr><th>Patient and carer concerns, expectations and wishes</th><td>I just want to stop hurting all the time and to have some energy back.</td></tr></tbody></table></div>"}},{"title":"Patient demographics","code":{"coding":[{"system":"http://snomed.info/sct","code":"886731000000109","display":"Patient demographics"}]},"text":{"status":"generated","div":"<div xmlns=\"http://www.w3.org/1999/xhtml\"><table width=\"100%\"><tbody><tr><th>Patient name</th><td><p>Prefix: Miss</p><p>Given Name: Ophelia</p><p>Family Name: Gently</p></td></tr><tr><th>Date of birth</th><td>1 April 1984</td></tr><tr><th>Gender</th><td>Female</td></tr><tr><th>NHS number</th><td>9876543210</td></tr><tr><th>Other identifier</th><td>TL98764</td></tr><tr><th>Patient address</th><td><p>Address Line: 22, Acacia Road</p><p>Post Code: BM9 6PL</p></td></tr><tr><th>Patient email address</th><td>ophelia@gently.net</td></tr><tr><th>Patient telephone number</th><td>Mobile: 077 7777 776</td></tr></tbody></table></div>"},"entry":[{"reference":"urn:uuid:bad2cc22-8186-437c-9531-68ff1e89104d"}]},{"title":"Person completing record","code":{"coding":[{"system":"http://snomed.info/sct","code":"887231000000104","display":"Person completing record"}]},"text":{"status":"additional","div":"<div xmlns=\"http://www.w3.org/1999/xhtml\"><table width=\"100%\"><tbody><tr><th>Name</th><td><p>Prefix: Dr</p><p>Given Name: H.H.</p><p>Family Name: Crippen</p></td></tr><tr><th>Role</th><td>Consultant Rheumatologist</td></tr><tr><th>Specialty</th><td>Rheumatology</td></tr><tr><th>Professional identifier</th><td>GMC: 2639598</td></tr><tr><th>Date and time completed</th><td>11/05/2017: 14:38</td></tr><tr><th>Contact details</th><td>Email: Hawley.crippen@nhs.net</td></tr></tbody></table></div>"},"entry":[{"reference":"urn:uuid:9aaf5503-c48e-4ff8-9365-85f06295a11b"}]},{"title":"Plan and requested actions","code":{"coding":[{"system":"http://snomed.info/sct","code":"887201000000105","display":"Plan and requested actions"}]},"text":{"status":"additional","div":"<div xmlns=\"http://www.w3.org/1999/xhtml\"><table width=\"100%\"><tbody><tr><th>Actions for patient or their carer</th><td>Should endeavour to take regular, gentle exercise in gradually increasing amounts.</td></tr></tbody></table></div>"}},{"title":"Referrer details","code":{"coding":[{"system":"http://snomed.info/sct","code":"1052891000000108","display":"Referrer details"}]},"text":{"status":"generated","div":"<div xmlns=\"http://www.w3.org/1999/xhtml\"><table width=\"100%\"><tbody><tr><th>Referrer Name</th><td><p>Prefix: Dr</p><p>Given Name: C</p><p>Family Name: O'Reilly</p><p>Role: General Medical Practitioner</p><p>Tel: 01234 956412</p><p>Organisation Name: Canvas Health Centre</p><p>Address Line: 27 Acacia Road</p><p>Post Code: BM9 6PM</p></td></tr></tbody></table></div>"},"entry":[{"reference":"urn:uuid:37fdbe18-3dd5-4b37-b090-a2f222bc968c"},{"reference":"urn:uuid:5c2e339d-3b3c-4de8-b61c-00cc9a4d6e41"}]},{"title":"Social context","code":{"coding":[{"system":"http://snomed.info/sct","code":"887051000000101","display":"Social context"}]},"text":{"status":"additional","div":"<div xmlns=\"http://www.w3.org/1999/xhtml\"><table width=\"100%\"><tbody><tr><th>Occupational history</th><td>Unemployed</td></tr><tr><th>Smoking</th><td>Ex-smoker</td></tr><tr><th>Alcohol intake</th><td>10-12 units weekly</td></tr></tbody></table></div>"}}]}},{"fullUrl":"urn:uuid:3abcaae6-dfbc-4e6d-80ed-912e64f3052f","resource":{"resourceType":"Encounter","id":"3abcaae6-dfbc-4e6d-80ed-912e64f3052f","meta":{"profile":["https://fhir.nhs.uk/STU3/StructureDefinition/CareConnect-ITK-Encounter-1"]},"extension":[{"url":"https://fhir.hl7.org.uk/STU3/StructureDefinition/Extension-CareConnect-OutcomeOfAttendance-1","valueCodeableConcept":{"coding":[{"system":"https://fhir.hl7.org.uk/STU3/CodeSystem/CareConnect-OutcomeOfAttendance-1","code":"3","display":"Appointment to be made at a later date"}]}}],"identifier":[{"system":"https://tools.ietf.org/html/rfc4122","value":"639bbd49-4ad5-40a0-918e-fd901ead30b7"}],"status":"finished","class":{"system":"http://hl7.org/fhir/v3-ActEncounterCode","code":"AMB","display":"ambulatory"},"type":[{"coding":[{"system":"https://www.datadictionary.nhs.uk","code":"1","display":"First attendance face to face"}]}],"subject":{"reference":"urn:uuid:bad2cc22-8186-437c-9531-68ff1e89104d"},"participant":[{"type":[{"coding":[{"system":"http://hl7.org/fhir/v3/ParticipationType","code":"ATND","display":"attender"}]}],"individual":{"reference":"urn:uuid:9aaf5503-c48e-4ff8-9365-85f06295a11b"}}],"period":{"start":"2017-05-11T13:00:00+00:00","end":"2017-05-11T14:00:00+00:00"}}},{"fullUrl":"urn:uuid:57529fe5-9ab9-417c-bb7a-d616a3399c36","resource":{"resourceType":"List","id":"57529fe5-9ab9-417c-bb7a-d616a3399c36","meta":{"profile":["https://fhir.nhs.uk/STU3/StructureDefinition/CareConnect-ITK-Allergy-List-1"]},"identifier":[{"system":"https://tools.ietf.org/html/rfc4122","value":"4e8e9a4a-3a49-4580-b500-fcb4e7b0c9cc"}],"status":"current","mode":"snapshot","code":{"coding":[{"system":"http://snomed.info/sct","code":"886921000000105","display":"Allergies and adverse reactions"}]},"subject":{"reference":"urn:uuid:bad2cc22-8186-437c-9531-68ff1e89104d"},"encounter":{"reference":"urn:uuid:3abcaae6-dfbc-4e6d-80ed-912e64f3052f"},"source":{"reference":"urn:uuid:9aaf5503-c48e-4ff8-9365-85f06295a11b"},"entry":[{"item":{"reference":"urn:uuid:1f00f1e6-4a4c-4b48-a35d-e4ca69dd23a1"}}]}},{"fullUrl":"urn:uuid:1f00f1e6-4a4c-4b48-a35d-e4ca69dd23a1","resource":{"resourceType":"AllergyIntolerance","id":"1f00f1e6-4a4c-4b48-a35d-e4ca69dd23a1","meta":{"profile":["https://fhir.nhs.uk/STU3/StructureDefinition/CareConnect-ITK-AllergyIntolerance-1"]},"identifier":[{"system":"https://tools.ietf.org/html/rfc4122","value":"bfea85e8-4181-48fb-8a44-651dfe20c0dd"}],"clinicalStatus":"active","verificationStatus":"confirmed","code":{"coding":[{"system":"http://snomed.info/sct","code":"716186003","display":"No known allergy"}]},"patient":{"reference":"urn:uuid:bad2cc22-8186-437c-9531-68ff1e89104d"}}},{"fullUrl":"urn:uuid:1b3d1381-2c83-4e86-a4c6-15625e8de087","resource":{"resourceType":"MedicationDispense","id":"1b3d1381-2c83-4e86-a4c6-15625e8de087","meta":{"profile":["https://fhir.nhs.uk/STU3/StructureDefinition/CareConnect-ITK-MedicationDispense-1"]},"identifier":[{"system":"https://tools.ietf.org/html/rfc4122","value":"cda2cc22-8186-437c-9531-68ff1e89401d"}],"status":"completed","category":{"coding":[{"system":"http://hl7.org/fhir/medication-dispense-category","code":"Outpatient","display":"Outpatient","userSelected":false}]},"medicationReference":{"reference":"urn:uuid:cc869708-b975-4fe5-a502-a6c22675c31e"},"subject":{"reference":"urn:uuid:bad2cc22-8186-437c-9531-68ff1e89104d"},"context":{"reference":"urn:uuid:3abcaae6-dfbc-4e6d-80ed-912e64f3052f"},"quantity":{"extension":[{"url":"https://fhir.hl7.org.uk/STU3/StructureDefinition/Extension-CareConnect-MedicationQuantityText-1","valueString":"14 Tablets"}]}}},{"fullUrl":"urn:uuid:cef7f8d5-78e3-4866-89f1-62470d6fd636","resource":{"resourceType":"List","id":"cef7f8d5-78e3-4866-89f1-62470d6fd636","meta":{"profile":["https://fhir.nhs.uk/STU3/StructureDefinition/CareConnect-ITK-Medication-List-1"]},"identifier":[{"system":"https://tools.ietf.org/html/rfc4122","value":"871f3590-f050-40d0-975a-022668cfb4c3"}],"status":"current","mode":"snapshot","code":{"coding":[{"system":"http://snomed.info/sct","code":"1102411000000102","display":"Active medications"}]},"subject":{"reference":"urn:uuid:bad2cc22-8186-437c-9531-68ff1e89104d"},"encounter":{"reference":"urn:uuid:3abcaae6-dfbc-4e6d-80ed-912e64f3052f"},"source":{"reference":"urn:uuid:9aaf5503-c48e-4ff8-9365-85f06295a11b"},"entry":[{"item":{"reference":"urn:uuid:a7da3060-d2f5-4761-b010-aa04e9e491dc"}}]}},{"fullUrl":"urn:uuid:a7da3060-d2f5-4761-b010-aa04e9e491dc","resource":{"resourceType":"MedicationStatement","id":"a7da3060-d2f5-4761-b010-aa04e9e491dc","meta":{"profile":["https://fhir.nhs.uk/STU3/StructureDefinition/CareConnect-ITK-MedicationStatement-1"]},"extension":[{"url":"https://fhir.hl7.org.uk/STU3/StructureDefinition/Extension-CareConnect-MedicationChangeSummary-1","extension":[{"url":"status","valueCode":"Added"}]}],"partOf":[{"reference":"urn:uuid:1b3d1381-2c83-4e86-a4c6-15625e8de087"}],"status":"active","medicationReference":{"reference":"urn:uuid:cc869708-b975-4fe5-a502-a6c22675c31e"},"subject":{"reference":"urn:uuid:bad2cc22-8186-437c-9531-68ff1e89104d"},"taken":"y","dosage":[{"text":"1 x 10mg once per day","patientInstruction":"To be taken one hour before bed.","route":{"coding":[{"system":"http://snomed.info/sct","code":"26643006","display":"Oral"}]}}]}},{"fullUrl":"urn:uuid:cc869708-b975-4fe5-a502-a6c22675c31e","resource":{"resourceType":"Medication","id":"cc869708-b975-4fe5-a502-a6c22675c31e","meta":{"profile":["https://fhir.nhs.uk/STU3/StructureDefinition/CareConnect-ITK-Medication-1"]},"code":{"coding":[{"system":"http://snomed.info/sct","code":"268711000001108","display":"Amitriptyline 10mg tablets (Actavis UK Ltd)"}]},"form":{"coding":[{"system":"http://snomed.info/sct","code":"385055001","display":"Tablet"}]}}},{"fullUrl":"urn:uuid:f0f67e53-647f-4216-933a-4ebd2c257969","resource":{"resourceType":"List","id":"f0f67e53-647f-4216-933a-4ebd2c257969","meta":{"profile":["https://fhir.nhs.uk/STU3/StructureDefinition/CareConnect-ITK-Condition-List-1"]},"identifier":[{"system":"https://tools.ietf.org/html/rfc4122","value":"941d6d24-dbd8-4721-a950-b32da9678371"}],"status":"current","mode":"snapshot","code":{"coding":[{"system":"http://snomed.info/sct","code":"887161000000102","display":"Diagnoses"}]},"subject":{"reference":"urn:uuid:bad2cc22-8186-437c-9531-68ff1e89104d"},"encounter":{"reference":"urn:uuid:3abcaae6-dfbc-4e6d-80ed-912e64f3052f"},"source":{"reference":"urn:uuid:9aaf5503-c48e-4ff8-9365-85f06295a11b"},"entry":[{"item":{"reference":"urn:uuid:7c09df38-890a-4d4c-bb86-00f93cad74a5"}},{"item":{"reference":"urn:uuid:0e5811d6-6e36-491a-9d2c-612149d4b3b9"}},{"item":{"reference":"urn:uuid:5af206c3-b5b5-4140-a9fa-4c4daf59331c"}},{"item":{"reference":"urn:uuid:8a29b416-2b8e-43db-bb92-578ba36961af"}}]}},{"fullUrl":"urn:uuid:7c09df38-890a-4d4c-bb86-00f93cad74a5","resource":{"resourceType":"Condition","id":"7c09df38-890a-4d4c-bb86-00f93cad74a5","meta":{"profile":["https://fhir.nhs.uk/STU3/StructureDefinition/CareConnect-ITK-Condition-1"]},"identifier":[{"system":"https://tools.ietf.org/html/rfc4122","value":"bc8e4fc0-18dc-46b5-9f60-30857b24e42b"}],"clinicalStatus":"active","category":[{"coding":[{"system":"https://fhir.hl7.org.uk/STU3/CodeSystem/CareConnect-ConditionCategory-1","code":"encounter-diagnosis","display":"Encounter Diagnosis"}]}],"code":{"coding":[{"system":"http://snomed.info/sct","code":"35678005","display":"Multiple joint pain"}]},"subject":{"reference":"urn:uuid:bad2cc22-8186-437c-9531-68ff1e89104d"},"context":{"reference":"urn:uuid:3abcaae6-dfbc-4e6d-80ed-912e64f3052f"}}},{"fullUrl":"urn:uuid:0e5811d6-6e36-491a-9d2c-612149d4b3b9","resource":{"resourceType":"Condition","id":"0e5811d6-6e36-491a-9d2c-612149d4b3b9","meta":{"profile":["https://fhir.nhs.uk/STU3/StructureDefinition/CareConnect-ITK-Condition-1"]},"identifier":[{"system":"https://tools.ietf.org/html/rfc4122","value":"9b5bfd05-4359-4639-93eb-28f13542013f"}],"clinicalStatus":"active","category":[{"coding":[{"system":"https://fhir.hl7.org.uk/STU3/CodeSystem/CareConnect-ConditionCategory-1","code":"encounter-diagnosis","display":"Encounter Diagnosis"}]}],"code":{"coding":[{"system":"http://snomed.info/sct","code":"84229001","display":"Fatigue"}]},"subject":{"reference":"urn:uuid:bad2cc22-8186-437c-9531-68ff1e89104d"},"context":{"reference":"urn:uuid:3abcaae6-dfbc-4e6d-80ed-912e64f3052f"}}},{"fullUrl":"urn:uuid:5af206c3-b5b5-4140-a9fa-4c4daf59331c","resource":{"resourceType":"Condition","id":"5af206c3-b5b5-4140-a9fa-4c4daf59331c","meta":{"profile":["https://fhir.nhs.uk/STU3/StructureDefinition/CareConnect-ITK-Condition-1"]},"identifier":[{"system":"https://tools.ietf.org/html/rfc4122","value":"1d1f13a2-c3ea-4743-9bd2-af2047b8759f"}],"clinicalStatus":"active","category":[{"coding":[{"system":"https://fhir.hl7.org.uk/STU3/CodeSystem/CareConnect-ConditionCategory-1","code":"encounter-diagnosis","display":"Encounter Diagnosis"}]}],"code":{"coding":[{"system":"http://snomed.info/sct","code":"46635009","display":"Type 1 diabetes mellitus"}]},"subject":{"reference":"urn:uuid:bad2cc22-8186-437c-9531-68ff1e89104d"},"context":{"reference":"urn:uuid:3abcaae6-dfbc-4e6d-80ed-912e64f3052f"}}},{"fullUrl":"urn:uuid:8a29b416-2b8e-43db-bb92-578ba36961af","resource":{"resourceType":"Condition","id":"8a29b416-2b8e-43db-bb92-578ba36961af","meta":{"profile":["https://fhir.nhs.uk/STU3/StructureDefinition/CareConnect-ITK-Condition-1"]},"identifier":[{"system":"https://tools.ietf.org/html/rfc4122","value":"1d1f13a2-c3ea-4743-9bd2-af2047b8759f"}],"clinicalStatus":"active","category":[{"coding":[{"system":"https://fhir.hl7.org.uk/STU3/CodeSystem/CareConnect-ConditionCategory-1","code":"encounter-diagnosis","display":"Encounter Diagnosis"}]}],"code":{"coding":[{"system":"http://snomed.info/sct","code":"40930008","display":"Hypothyroidism"}]},"subject":{"reference":"urn:uuid:bad2cc22-8186-437c-9531-68ff1e89104d"},"context":{"reference":"urn:uuid:3abcaae6-dfbc-4e6d-80ed-912e64f3052f"}}},{"fullUrl":"urn:uuid:bad2cc22-8186-437c-9531-68ff1e89104d","resource":{"resourceType":"Patient","id":"bad2cc22-8186-437c-9531-68ff1e89104d","meta":{"profile":["https://fhir.hl7.org.uk/STU3/StructureDefinition/CareConnect-Patient-1"]},"identifier":[{"extension":[{"url":"https://fhir.hl7.org.uk/STU3/StructureDefinition/Extension-CareConnect-NHSNumberVerificationStatus-1","valueCodeableConcept":{"coding":[{"system":"https://fhir.hl7.org.uk/STU3/CodeSystem/CareConnect-NHSNumberVerificationStatus-1","code":"01","display":"Number present and verified"}]}}],"system":"https://fhir.nhs.uk/Id/nhs-number","value":"9876543210"},{"system":"https://fhir.nhs.uk/Id/local-patient-identifier","value":"TL98764"}],"name":[{"use":"official","family":"Gently","given":["Ophelia"],"prefix":["Miss"]}],"telecom":[{"system":"phone","value":"077 7777 776","use":"mobile"},{"system":"email","value":"ophelia@gently.net"}],"gender":"female","birthDate":"1984-04-01","address":[{"line":["22 Acacia Road"],"postalCode":"BM9 6PL"}]}},{"fullUrl":"urn:uuid:9aaf5503-c48e-4ff8-9365-85f06295a11b","resource":{"resourceType":"Practitioner","id":"9aaf5503-c48e-4ff8-9365-85f06295a11b","meta":{"profile":["https://fhir.hl7.org.uk/STU3/StructureDefinition/CareConnect-Practitioner-1"]},"identifier":[{"system":"https://fhir.hl7.org.uk/Id/gmc-number","value":"2639598"}],"name":[{"family":"Crippen","given":["Hawley"],"prefix":["Dr"]}],"telecom":[{"system":"email","value":"Hawley.crippen@nhs.net"}]}},{"fullUrl":"urn:uuid:37fdbe18-3dd5-4b37-b090-a2f222bc968c","resource":{"resourceType":"Practitioner","id":"37fdbe18-3dd5-4b37-b090-a2f222bc968c","meta":{"profile":["https://fhir.hl7.org.uk/STU3/StructureDefinition/CareConnect-Practitioner-1"]},"identifier":[{"system":"https://fhir.nhs.uk/Id/local-practitioner-identifier","value":"8122472"}],"name":[{"family":"O'Reilly","given":["C"],"prefix":["Dr"]}],"telecom":[{"system":"phone","value":"01234 956412"}]}},{"fullUrl":"urn:uuid:fcc956a8-a96f-4bd5-b0b2-196bbb1f0f66","resource":{"resourceType":"PractitionerRole","id":"fcc956a8-a96f-4bd5-b0b2-196bbb1f0f66","meta":{"profile":["https://fhir.hl7.org.uk/STU3/StructureDefinition/CareConnect-PractitionerRole-1"]},"practitioner":{"reference":"urn:uuid:37fdbe18-3dd5-4b37-b090-a2f222bc968c"},"organization":{"reference":"urn:uuid:5c2e339d-3b3c-4de8-b61c-00cc9a4d6e41"},"code":[{"coding":[{"system":"https://fhir.hl7.org.uk/STU3/CodeSystem/CareConnect-SDSJobRoleName-1","code":"R0260","display":"General Medical Practitioner"}]}]}},{"fullUrl":"urn:uuid:cd734ce9-468d-4a36-8dac-e453aa4747e0","resource":{"resourceType":"PractitionerRole","id":"cd734ce9-468d-4a36-8dac-e453aa4747e0","meta":{"profile":["https://fhir.hl7.org.uk/STU3/StructureDefinition/CareConnect-PractitionerRole-1"]},"practitioner":{"reference":"urn:uuid:9aaf5503-c48e-4ff8-9365-85f06295a11b"},"organization":{"reference":"urn:uuid:1cb3ed43-370c-4a1b-a6d4-1fab57f1646f"},"code":[{"coding":[{"system":"https://fhir.hl7.org.uk/STU3/CodeSystem/CareConnect-SDSJobRoleName-1","code":"R0050","display":"Consultant"}]}],"specialty":[{"coding":[{"system":"http://snomed.info/sct","code":"394810000","display":"Rheumatology"}]}]}},{"fullUrl":"urn:uuid:5c2e339d-3b3c-4de8-b61c-00cc9a4d6e41","resource":{"resourceType":"Organization","id":"5c2e339d-3b3c-4de8-b61c-00cc9a4d6e41","meta":{"profile":["https://fhir.hl7.org.uk/STU3/StructureDefinition/CareConnect-Organization-1"]},"identifier":[{"system":"https://fhir.nhs.uk/Id/ods-organization-code","value":"A111111"}],"name":"Canvas Health Centre","address":[{"line":["27 Acacia Road"],"postalCode":"BM9 6PM"}]}},{"fullUrl":"urn:uuid:1cb3ed43-370c-4a1b-a6d4-1fab57f1646f","resource":{"resourceType":"Organization","id":"1cb3ed43-370c-4a1b-a6d4-1fab57f1646f","meta":{"profile":["https://fhir.hl7.org.uk/STU3/StructureDefinition/CareConnect-Organization-1"]},"identifier":[{"system":"https://fhir.nhs.uk/Id/ods-organization-code","value":"RX00001"}],"name":"Rheumatology Department","telecom":[{"system":"phone","value":"01234 567890","use":"work"},{"system":"email","value":"rd@stcrispins.nhs.uk","use":"work"}],"address":[{"line":["St Crispin's Hospital"],"city":"Donaldstown","postalCode":"DO5 7TP"}]}}]}