{"resourceType":"Bundle","id":"fab7e268-99dc-4c04-ae7e-c1d6a784c098","meta":{"lastUpdated":"2017-05-16T19:42:00+00:00","profile":["https://fhir.nhs.uk/STU3/StructureDefinition/ITK-Document-Bundle-1"]},"identifier":{"system":"https://tools.ietf.org/html/rfc4122","value":"d929db2f-5781-4667-a4c2-098e2d986074"},"type":"document","entry":[{"fullUrl":"urn:uuid:5afa2be6-651e-48e9-9712-fc81bb4b8c12","resource":{"resourceType":"Composition","id":"5afa2be6-651e-48e9-9712-fc81bb4b8c12","meta":{"profile":["https://fhir.nhs.uk/STU3/StructureDefinition/CareConnect-ITK-OPL-Composition-1"]},"extension":[{"url":"https://fhir.hl7.org.uk/STU3/StructureDefinition/Extension-CareConnect-CareSettingType-1","valueCodeableConcept":{"coding":[{"system":"http://snomed.info/sct","code":"310164003","display":"Plastic surgery service"}]}}],"identifier":{"system":"https://tools.ietf.org/html/rfc4122","value":"22b6c1fb-e6f4-4f4d-a4a7-2c6b0188b580"},"status":"final","type":{"coding":[{"system":"http://snomed.info/sct","code":"823681000000100","display":"Outpatient letter"}]},"subject":{"reference":"urn:uuid:862b638b-6f75-4f4b-870f-40d9c8f99e57"},"encounter":{"reference":"urn:uuid:c6184a32-b332-440c-9ecc-21c17a6d3528"},"date":"2017-05-16T16:42:00+00:00","author":[{"reference":"urn:uuid:5cfdc975-9f0e-48af-b4ac-8114987cb7e0"}],"title":"Plastic Surgery Service Outpatient Letter","custodian":{"reference":"urn:uuid:77cef538-3c15-41c9-8a10-fbbb89fb396a"},"section":[{"title":"Allergies and adverse reactions","code":{"coding":[{"system":"http://snomed.info/sct","code":"886921000000105","display":"Allergies and adverse reactions"}]},"text":{"status":"additional","div":"<div xmlns=\"http://www.w3.org/1999/xhtml\"><table width=\"100%\"><tbody><tr><th>Causative agent</th><td>Penicillin -class of antibiotic-</td></tr><tr><th>Description of reaction</th><td>Nausea and vomiting</td></tr><tr><th>Severity</th><td>Mild</td></tr><tr><th>Certainty</th><td>Likely</td></tr><tr><th>Type of reaction</th><td>Intolerance</td></tr><tr><th>Date first experienced</th><td>4 years ago</td></tr></tbody></table></div>"},"entry":[{"reference":"urn:uuid:f4302d9f-3776-4d51-aca1-d01020e9a9c1"}]},{"title":"Attendance details","code":{"coding":[{"system":"http://snomed.info/sct","code":"1077881000000105","display":"Attendance details"}]},"text":{"status":"additional","div":"<div xmlns=\"http://www.w3.org/1999/xhtml\"><table width=\"100%\"><tbody><tr><td colspan=\"2\" style=\"width:100%\">Dear Dr. C. O'Reilly, <br />I had the pleasure of meeting Mrs. Beckett in my general plastic surgery clinic, referred by Dr. William Yates, Dermatology Consultant, St Crispin's Hospital, Donaldstown, DO1 4XP 01234 567890.<br /></td></tr><tr><th>Date and time of contact</th><td>16 May 2017 10:00</td></tr><tr><th>Contact type</th><td>First attendance face to face</td></tr><tr><th>Consultation method</th><td>Face-to-face</td></tr><tr><th>Responsible healthcare professional</th><td>Dr. Shauna O'Casey (Consultant Plastic and Reconstructive Surgeon)</td></tr><tr><th>Specialty</th><td>Plastic surgery - speciality</td></tr><tr><th>Service</th><td>Plastic surgery service</td></tr><tr><th>Seen by</th><td><p>Prefix: Dr</p><p>Given Name: Shauna</p><p>Family Name: O'Casey</p><p>Role: Consultant Plastic and Reconstructive Surgeon</p><p>Tel: 01234 567890 (Work) Email: cpc@nhs.uk (Work)</p></td></tr><tr><td><p>Prefix: Mrs</p><p>Given Name: Patricia</p><p>Family Name: Kavanagh</p><p>Role: Skin Cancer Specialist Nurse</p><p>Tel: 01234 567890 (Work)</p></td></tr><tr><th>Care professionals present</th><td><p>Prefix: Mrs</p><p>Given Name: Jane</p><p>Family Name: Joyce</p><p>Role: Healthcare Assistant</p><p>Tel: 01234 567890 (Work)</p></td></tr><tr><th>Outcome of outpatient attendance</th><td>Appointment to be made at a later date</td></tr></tbody></table></div>"},"entry":[{"reference":"urn:uuid:c6184a32-b332-440c-9ecc-21c17a6d3528"}]},{"title":"Clinical summary","code":{"coding":[{"system":"http://snomed.info/sct","code":"887181000000106","display":"Clinical summary"}]},"text":{"status":"additional","div":"<div xmlns=\"http://www.w3.org/1999/xhtml\"><table width=\"100%\"><tbody><tr><th>Clinical summary</th></tr><tr><td>This delightful lady has presented with a 10 month history of a left arm lesion that is rapidly growing and will require excisional biopsy to confirm the nature of the growth.</td></tr></tbody></table></div>"}},{"title":"Diagnoses","code":{"coding":[{"system":"http://snomed.info/sct","code":"887161000000102","display":"Diagnoses"}]},"text":{"status":"additional","div":"<div xmlns=\"http://www.w3.org/1999/xhtml\"><table><tbody><tr><th>Diagnosis name</th><td>Lesion</td></tr><tr><th>Comment</th><td>Lesion is situated on left forearm</td></tr></tbody></table><table><tbody><tr><th>Diagnosis name</th><td>Hypertension</td></tr></tbody></table></div>"},"entry":[{"reference":"urn:uuid:fbfde333-b212-4b67-82c1-09d995819657"}]},{"title":"Distribution list","code":{"coding":[{"system":"http://snomed.info/sct","code":"887261000000109","display":"Distribution list"}]},"text":{"status":"additional","div":"<div xmlns=\"http://www.w3.org/1999/xhtml\"><table width=\"100%\"><tbody><tr><th>Name</th><td><p>Prefix: Dr</p><p>Given Name: C</p><p>Family Name: O'Reilly</p></td></tr><tr><th>Role</th><td>General Medical Practitioner</td></tr><tr><th>Organisation name</th><td>Canvas Health Centre</td></tr></tbody></table><table width=\"100%\"><tbody><tr><th>Name</th><td><p>Prefix: Mrs</p><p>Given Name: Sam</p><p>Family Name: Beckett</p></td></tr></tbody></table></div>"},"entry":[{"reference":"urn:uuid:8b2ef03f-6d11-40fe-b199-b3f5a09b5028"},{"reference":"urn:uuid:862b638b-6f75-4f4b-870f-40d9c8f99e57"}]},{"title":"Examination finding","code":{"coding":[{"system":"http://snomed.info/sct","code":"715851000000102","display":"Examination findings"}]},"text":{"status":"additional","div":"<div xmlns=\"http://www.w3.org/1999/xhtml\"><table width=\"100%\"><tbody><tr><th>Examination findings</th></tr><tr><td>Mrs. Beckett is well. There are no skin lesions to the body other than left forearm. She has a 3x2cm scaly lesion which is centrally ulcerated. There was no evidence of left axillary or cervical node involvement.</td></tr></tbody></table></div>"}},{"title":"Family history","code":{"coding":[{"system":"http://snomed.info/sct","code":"887111000000104","display":"Family history"}]},"text":{"status":"additional","div":"<div xmlns=\"http://www.w3.org/1999/xhtml\"><table width=\"100%\"><tbody><tr><th>Family history</th></tr><tr><td>Mrs. Beckett's father died of melanoma at 62 years old.</td></tr></tbody></table></div>"}},{"title":"GP practice","code":{"coding":[{"system":"http://snomed.info/sct","code":"886711000000101","display":"GP practice"}]},"text":{"status":"additional","div":"<div xmlns=\"http://www.w3.org/1999/xhtml\"><table width=\"100%\"><tbody><tr><th>GP name</th><td><p>Prefix: Dr</p><p>Given Name: C</p><p>Family Name: O'Reilly</p></td></tr><tr><th>GP practice details</th><td><p>Name: Canvas Health Centre</p><p>Address:</p><p>Address Line: 27, Acacia Road</p><p>Post Code: BM9 6PM</p></td></tr></tbody></table></div>"},"entry":[{"reference":"urn:uuid:2db180bc-98fb-4b98-aab1-77a4e6ccd19f"}]},{"title":"History","code":{"coding":[{"system":"http://snomed.info/sct","code":"717121000000105","display":"History"}]},"text":{"status":"additional","div":"<div xmlns=\"http://www.w3.org/1999/xhtml\"><table width=\"100%\"><tbody><tr><th>History of each presenting complaint or issue</th><td>Potential Squamous cell carcinoma to left forearm. Rapidly growing lesion to left forearm x 10 months. Has seen dermatologists who have assessed and referred on to Plastics for surgical excision and possible skin grafting after lesion is excised.</td></tr></tbody></table></div>"}},{"title":"Individual requirements","code":{"coding":[{"system":"http://snomed.info/sct","code":"1078911000000106","display":"Individual requirements"}]},"text":{"status":"additional","div":"<div xmlns=\"http://www.w3.org/1999/xhtml\"><table width=\"100%\"><tbody><tr><th>Individual requirements</th><td>Polish national with limited English - needs an interpreter.</td></tr></tbody></table></div>"}},{"title":"Information and advice given","code":{"coding":[{"system":"http://snomed.info/sct","code":"1052951000000105","display":"Information and advice given"}]},"text":{"status":"additional","div":"<div xmlns=\"http://www.w3.org/1999/xhtml\"><table width=\"100%\"><tbody><tr><th>Information and advice given</th><td>Patient seen by the Skin Cancer Specialist Nurse and has been reassured of her place. I have warned her of the risk of infection, bleeding, reoperation, scarring, wound dehiscence and the need for dressings.  She understands this and is happy to be added to the waiting list.\r\n</td></tr></tbody></table></div>"}},{"title":"Patient demographics","code":{"coding":[{"system":"http://snomed.info/sct","code":"886731000000109","display":"Patient demographics"}]},"text":{"status":"additional","div":"<div xmlns=\"http://www.w3.org/1999/xhtml\"><table width=\"100%\"><tbody><tr><th>Patient name</th><td><p>Prefix: Mrs</p><p>Given Name: Sam</p><p>Family Name: Beckett</p></td></tr><tr><th>Date of birth</th><td>2 March 1973</td></tr><tr><th>Gender</th><td>Female</td></tr><tr><th>NHS number</th><td>1269523190</td></tr><tr><th>Other identifier</th><td>TL12945</td></tr><tr><th>Patient address</th><td><p>Address Line: 34, Acacia Road</p><p>Post Code: BM9 6PL</p></td></tr><tr><th>Patient email address</th><td>sam@beckett.net</td></tr><tr><th>Patient telephone number</th><td>Mobile: 077 1234 7982</td></tr><tr><th>Relevant contacts</th><td>Mr. Sam Beckett, 34, Acacia Road, BM9 6PL (husband)</td></tr></tbody></table></div>"},"entry":[{"reference":"urn:uuid:862b638b-6f75-4f4b-870f-40d9c8f99e57"}]},{"title":"Person completing record","code":{"coding":[{"system":"http://snomed.info/sct","code":"887231000000104","display":"Person completing record"}]},"text":{"status":"additional","div":"<div xmlns=\"http://www.w3.org/1999/xhtml\"><table width=\"100%\"><tbody><tr><th>Name</th><td><p>Prefix: Dr</p><p>Given Name: Shauna</p><p>Family Name: O'Casey</p></td></tr><tr><th>Role</th><td>Consultant Plastic and Reconstructive Surgeon</td></tr><tr><th>Specialty</th><td>Plastic surgery - speciality</td></tr><tr><th>Professional identifier</th><td>GMC: 6775580</td></tr><tr><th>Date and time completed</th><td>16 May 2017 16:42</td></tr><tr><th>Contact details</th><td>Tel: 01234 567890</td></tr></tbody></table></div>"},"entry":[{"reference":"urn:uuid:5cfdc975-9f0e-48af-b4ac-8114987cb7e0"}]},{"title":"Plan and requested actions","code":{"coding":[{"system":"http://snomed.info/sct","code":"887201000000105","display":"Plan and requested actions"}]},"text":{"status":"additional","div":"<div xmlns=\"http://www.w3.org/1999/xhtml\"><table width=\"100%\"><tbody><tr><th>Actions for healthcare professionals</th></tr><tr><td>Added to waiting list for excisional biopsy of lesion and direct closure on left forearm by\tDr. Shauna O'Casey, 16/05/17</td></tr></tbody></table></div>"}},{"title":"Referrer details","code":{"coding":[{"system":"http://snomed.info/sct","code":"1052891000000108","display":"Referrer details"}]},"text":{"status":"additional","div":"<div xmlns=\"http://www.w3.org/1999/xhtml\"><table width=\"100%\"><tbody><tr><th>Referrer Name</th><td><p>Prefix: Dr</p><p>Given Name: William</p><p>Family Name: Yates</p><p>Role: Dermatology Consultant</p><p>Tel: 01234 567890</p><p>Organisation Name: St Crispin's Hospital</p><p>City: Donaldstown</p><p>Post Code: DO1 4XP</p></td></tr></tbody></table></div>"},"entry":[{"reference":"urn:uuid:c018d668-2fd8-47f4-86d8-5a3a8bfa67c0"}]},{"title":"Social context","code":{"coding":[{"system":"http://snomed.info/sct","code":"887051000000101","display":"Social context"}]},"text":{"status":"additional","div":"<div xmlns=\"http://www.w3.org/1999/xhtml\"><table width=\"100%\"><tbody><tr><th>Household composition</th><td>Mrs. Beckett lives with her husband.</td></tr><tr><th>Occupational history</th><td>Factory worker</td></tr><tr><th>Smoking</th><td>Does not smoke.</td></tr><tr><th>Alcohol intake</th><td>Rare</td></tr></tbody></table></div>"}}]}},{"fullUrl":"urn:uuid:c6184a32-b332-440c-9ecc-21c17a6d3528","resource":{"resourceType":"Encounter","id":"c6184a32-b332-440c-9ecc-21c17a6d3528","meta":{"profile":["https://fhir.nhs.uk/STU3/StructureDefinition/CareConnect-ITK-Encounter-1"]},"extension":[{"url":"https://fhir.hl7.org.uk/STU3/StructureDefinition/Extension-CareConnect-OutcomeOfAttendance-1","valueCodeableConcept":{"coding":[{"system":"https://fhir.hl7.org.uk/STU3/CodeSystem/CareConnect-OutcomeOfAttendance-1","code":"3","display":"Appointment to be made at a later date"}]}}],"identifier":[{"system":"https://tools.ietf.org/html/rfc4122","value":"159372d5-de3b-42be-823d-8a7bdb172bde"}],"status":"finished","class":{"system":"http://hl7.org/fhir/v3-ActEncounterCode","code":"AMB","display":"ambulatory"},"type":[{"coding":[{"system":"https://www.datadictionary.nhs.uk","code":"1","display":"First attendance face to face"}]}],"subject":{"reference":"urn:uuid:862b638b-6f75-4f4b-870f-40d9c8f99e57"},"participant":[{"type":[{"coding":[{"system":"http://hl7.org/fhir/v3/ParticipationType","code":"ATND","display":"attender"}]}],"individual":{"reference":"urn:uuid:5cfdc975-9f0e-48af-b4ac-8114987cb7e0"}},{"type":[{"coding":[{"system":"http://hl7.org/fhir/v3/ParticipationType","code":"PART","display":"Participation"}]}],"individual":{"reference":"urn:uuid:a4dec203-3364-4152-b61b-045be256bc93"}},{"type":[{"coding":[{"system":"http://hl7.org/fhir/v3/ParticipationType","code":"PART","display":"Participation"}]}],"individual":{"reference":"urn:uuid:c6387b76-d27b-4fcf-9a91-93ca5c16b4fd"}}],"period":{"start":"2017-05-16T10:00:00+00:00","end":"2017-05-16T11:00:00+00:00"}}},{"fullUrl":"urn:uuid:f4302d9f-3776-4d51-aca1-d01020e9a9c1","resource":{"resourceType":"List","id":"f4302d9f-3776-4d51-aca1-d01020e9a9c1","meta":{"profile":["https://fhir.nhs.uk/STU3/StructureDefinition/CareConnect-ITK-Allergy-List-1"]},"identifier":[{"system":"https://tools.ietf.org/html/rfc4122","value":"93e491c0-18d7-449d-8616-45c8fdef80d3"}],"status":"current","mode":"snapshot","code":{"coding":[{"system":"http://snomed.info/sct","code":"886921000000105","display":"Allergies and adverse reactions"}]},"subject":{"reference":"urn:uuid:862b638b-6f75-4f4b-870f-40d9c8f99e57"},"encounter":{"reference":"urn:uuid:c6184a32-b332-440c-9ecc-21c17a6d3528"},"source":{"reference":"urn:uuid:5cfdc975-9f0e-48af-b4ac-8114987cb7e0"},"entry":[{"item":{"reference":"urn:uuid:89de84b7-f877-456a-9292-0d87a52c0da2"}}]}},{"fullUrl":"urn:uuid:89de84b7-f877-456a-9292-0d87a52c0da2","resource":{"resourceType":"AllergyIntolerance","id":"89de84b7-f877-456a-9292-0d87a52c0da2","meta":{"profile":["https://fhir.nhs.uk/STU3/StructureDefinition/CareConnect-ITK-AllergyIntolerance-1"]},"identifier":[{"system":"https://tools.ietf.org/html/rfc4122","value":"b0e5f445-3706-46cc-9cdb-49cfa4caa5ab"}],"clinicalStatus":"active","verificationStatus":"unconfirmed","type":"intolerance","code":{"coding":[{"system":"http://snomed.info/sct","code":"373270004","display":"Penicillin -class of antibiotic-"}]},"patient":{"reference":"urn:uuid:862b638b-6f75-4f4b-870f-40d9c8f99e57"},"onsetString":"4 years ago","reaction":[{"manifestation":[{"coding":[{"system":"http://snomed.info/sct","code":"16932000","display":"Nausea and vomiting"}]}],"severity":"mild"}]}},{"fullUrl":"urn:uuid:fbfde333-b212-4b67-82c1-09d995819657","resource":{"resourceType":"List","id":"fbfde333-b212-4b67-82c1-09d995819657","meta":{"profile":["https://fhir.nhs.uk/STU3/StructureDefinition/CareConnect-ITK-Condition-List-1"]},"identifier":[{"system":"https://tools.ietf.org/html/rfc4122","value":"956cd43e-3a0f-4420-a611-c7d40fa3bf8c"}],"status":"current","mode":"snapshot","code":{"coding":[{"system":"http://snomed.info/sct","code":"887161000000102","display":"Diagnoses"}]},"subject":{"reference":"urn:uuid:862b638b-6f75-4f4b-870f-40d9c8f99e57"},"encounter":{"reference":"urn:uuid:c6184a32-b332-440c-9ecc-21c17a6d3528"},"source":{"reference":"urn:uuid:5cfdc975-9f0e-48af-b4ac-8114987cb7e0"},"entry":[{"item":{"reference":"urn:uuid:811a3c7c-80a3-4811-a72d-620fc7732ab6"}},{"item":{"reference":"urn:uuid:c95e754f-0707-44fe-aafc-14414cffe8a7"}}]}},{"fullUrl":"urn:uuid:811a3c7c-80a3-4811-a72d-620fc7732ab6","resource":{"resourceType":"Condition","id":"811a3c7c-80a3-4811-a72d-620fc7732ab6","meta":{"profile":["https://fhir.nhs.uk/STU3/StructureDefinition/CareConnect-ITK-Condition-1"]},"identifier":[{"system":"https://tools.ietf.org/html/rfc4122","value":"e42fd96e-ce30-4c61-801a-85c5513a1532"}],"clinicalStatus":"active","category":[{"coding":[{"system":"https://fhir.hl7.org.uk/STU3/CodeSystem/CareConnect-ConditionCategory-1","code":"encounter-diagnosis","display":"Encounter Diagnosis"}]}],"code":{"coding":[{"system":"http://snomed.info/sct","code":"38341003","display":"Hypertension"}]},"subject":{"reference":"urn:uuid:862b638b-6f75-4f4b-870f-40d9c8f99e57"},"context":{"reference":"urn:uuid:c6184a32-b332-440c-9ecc-21c17a6d3528"}}},{"fullUrl":"urn:uuid:c95e754f-0707-44fe-aafc-14414cffe8a7","resource":{"resourceType":"Condition","id":"c95e754f-0707-44fe-aafc-14414cffe8a7","meta":{"profile":["https://fhir.nhs.uk/STU3/StructureDefinition/CareConnect-ITK-Condition-1"]},"identifier":[{"system":"https://tools.ietf.org/html/rfc4122","value":"37ff173c-262a-44d4-b30f-b34f1b5b1db9"}],"clinicalStatus":"active","category":[{"coding":[{"system":"https://fhir.hl7.org.uk/STU3/CodeSystem/CareConnect-ConditionCategory-1","code":"encounter-diagnosis","display":"Encounter Diagnosis"}]}],"code":{"coding":[{"system":"http://snomed.info/sct","code":"52988006","display":"Lesion"}]},"subject":{"reference":"urn:uuid:862b638b-6f75-4f4b-870f-40d9c8f99e57"},"context":{"reference":"urn:uuid:c6184a32-b332-440c-9ecc-21c17a6d3528"}}},{"fullUrl":"urn:uuid:862b638b-6f75-4f4b-870f-40d9c8f99e57","resource":{"resourceType":"Patient","id":"862b638b-6f75-4f4b-870f-40d9c8f99e57","meta":{"profile":["https://fhir.hl7.org.uk/STU3/StructureDefinition/CareConnect-Patient-1"]},"identifier":[{"extension":[{"url":"https://fhir.hl7.org.uk/STU3/StructureDefinition/Extension-CareConnect-NHSNumberVerificationStatus-1","valueCodeableConcept":{"coding":[{"system":"https://fhir.hl7.org.uk/STU3/CodeSystem/CareConnect-NHSNumberVerificationStatus-1","code":"01","display":"Number present and verified"}]}}],"system":"https://fhir.nhs.uk/Id/nhs-number","value":"1269523190"},{"system":"https://fhir.nhs.uk/Id/local-patient-identifier","value":"TL12945"}],"name":[{"use":"official","family":"Beckett","given":["Sam"],"prefix":["Mrs"]}],"telecom":[{"system":"phone","value":"077 1234 7982","use":"mobile"},{"system":"email","value":"sam@beckett.net"}],"gender":"female","birthDate":"1973-03-02","address":[{"line":["34 Acacia Road"],"postalCode":"BM9 6PL"}]}},{"fullUrl":"urn:uuid:a4dec203-3364-4152-b61b-045be256bc93","resource":{"resourceType":"Practitioner","id":"a4dec203-3364-4152-b61b-045be256bc93","meta":{"profile":["https://fhir.hl7.org.uk/STU3/StructureDefinition/CareConnect-Practitioner-1"]},"name":[{"use":"usual","family":"Kavanagh","given":["Patricia"],"prefix":["Mrs"]}],"telecom":[{"system":"phone","value":"01234 567890","use":"work"}]}},{"fullUrl":"urn:uuid:8b2ef03f-6d11-40fe-b199-b3f5a09b5028","resource":{"resourceType":"Practitioner","id":"8b2ef03f-6d11-40fe-b199-b3f5a09b5028","meta":{"profile":["https://fhir.hl7.org.uk/STU3/StructureDefinition/CareConnect-Practitioner-1"]},"identifier":[{"system":"https://fhir.nhs.uk/Id/local-practitioner-identifier","value":"8122472"}],"name":[{"family":"O'Reilly","given":["C"],"prefix":["Dr"]}],"telecom":[{"system":"phone","value":"01234 956412","use":"work"}]}},{"fullUrl":"urn:uuid:5cfdc975-9f0e-48af-b4ac-8114987cb7e0","resource":{"resourceType":"Practitioner","id":"5cfdc975-9f0e-48af-b4ac-8114987cb7e0","meta":{"profile":["https://fhir.hl7.org.uk/STU3/StructureDefinition/CareConnect-Practitioner-1"]},"identifier":[{"system":"https://fhir.hl7.org.uk/Id/gmc-number","value":"6775580"}],"name":[{"family":"O'Casey","given":["Shauna"],"prefix":["Dr"]}],"telecom":[{"system":"phone","value":"01234 567890","use":"work"},{"system":"email","value":"cpc@nhs.uk","use":"work"}],"address":[{"line":["General Plastic Surgery Clinic, St. Crispin's Hospital"],"city":"Donaldstown","postalCode":"DO1 4XP"}]}},{"fullUrl":"urn:uuid:c6387b76-d27b-4fcf-9a91-93ca5c16b4fd","resource":{"resourceType":"Practitioner","id":"c6387b76-d27b-4fcf-9a91-93ca5c16b4fd","meta":{"profile":["https://fhir.hl7.org.uk/STU3/StructureDefinition/CareConnect-Practitioner-1"]},"name":[{"family":"Joyce","given":["Jane"],"prefix":["Mrs"]}],"telecom":[{"system":"phone","value":"01234 567890","use":"work"}]}},{"fullUrl":"urn:uuid:c018d668-2fd8-47f4-86d8-5a3a8bfa67c0","resource":{"resourceType":"Practitioner","id":"c018d668-2fd8-47f4-86d8-5a3a8bfa67c0","meta":{"profile":["https://fhir.hl7.org.uk/STU3/StructureDefinition/CareConnect-Practitioner-1"]},"name":[{"family":"Yates","given":["William"],"prefix":["Dr"]}],"telecom":[{"system":"phone","value":"01234 567890","use":"work"}],"address":[{"line":["St. Crispin's Hospital"],"city":"Donaldstown","postalCode":"DO1 4XP"}]}},{"fullUrl":"urn:uuid:2b103117-a783-4a66-a0de-f308cd6b63cf","resource":{"resourceType":"PractitionerRole","id":"2b103117-a783-4a66-a0de-f308cd6b63cf","meta":{"profile":["https://fhir.hl7.org.uk/STU3/StructureDefinition/CareConnect-PractitionerRole-1"]},"practitioner":{"reference":"urn:uuid:8b2ef03f-6d11-40fe-b199-b3f5a09b5028"},"organization":{"reference":"urn:uuid:2db180bc-98fb-4b98-aab1-77a4e6ccd19f"},"code":[{"coding":[{"system":"https://fhir.hl7.org.uk/STU3/CodeSystem/CareConnect-SDSJobRoleName-1","code":"R0260","display":"General Medical Practitioner"}]}]}},{"fullUrl":"urn:uuid:3fd6b44a-9f29-4322-93d4-680236d31393","resource":{"resourceType":"PractitionerRole","id":"3fd6b44a-9f29-4322-93d4-680236d31393","meta":{"profile":["https://fhir.hl7.org.uk/STU3/StructureDefinition/CareConnect-PractitionerRole-1"]},"practitioner":{"reference":"urn:uuid:c018d668-2fd8-47f4-86d8-5a3a8bfa67c0"},"code":[{"coding":[{"system":"https://fhir.nhs.uk/STU3/CodeSystem/CareConnect-SDSJobRoleName-1","code":"R0050","display":"Consultant"}]}],"specialty":[{"coding":[{"system":"http://snomed.info/sct","code":"394582007","display":"Dermatology"}]}]}},{"fullUrl":"urn:uuid:6057a121-b711-49ef-91c3-1d4c7fa37e8f","resource":{"resourceType":"PractitionerRole","id":"6057a121-b711-49ef-91c3-1d4c7fa37e8f","meta":{"profile":["https://fhir.hl7.org.uk/STU3/StructureDefinition/CareConnect-PractitionerRole-1"]},"practitioner":{"reference":"urn:uuid:5cfdc975-9f0e-48af-b4ac-8114987cb7e0"},"organization":{"reference":"urn:uuid:77cef538-3c15-41c9-8a10-fbbb89fb396a"},"code":[{"coding":[{"system":"https://fhir.nhs.uk/STU3/CodeSystem/CareConnect-SDSJobRoleName-1","code":"R0050","display":"Consultant"}]}],"specialty":[{"coding":[{"system":"http://snomed.info/sct","code":"394611003","display":"Plastic surgery - speciality"}]}]}},{"fullUrl":"urn:uuid:e6077f3f-4b5c-4757-adec-eb5e26842d1d","resource":{"resourceType":"PractitionerRole","id":"e6077f3f-4b5c-4757-adec-eb5e26842d1d","meta":{"profile":["https://fhir.hl7.org.uk/STU3/StructureDefinition/CareConnect-PractitionerRole-1"]},"practitioner":{"reference":"urn:uuid:a4dec203-3364-4152-b61b-045be256bc93"},"organization":{"reference":"urn:uuid:77cef538-3c15-41c9-8a10-fbbb89fb396a"}}},{"fullUrl":"urn:uuid:c0dc78ca-72b7-4d57-b9bc-118a5cd09f39","resource":{"resourceType":"PractitionerRole","id":"c0dc78ca-72b7-4d57-b9bc-118a5cd09f39","meta":{"profile":["https://fhir.hl7.org.uk/STU3/StructureDefinition/CareConnect-PractitionerRole-1"]},"practitioner":{"reference":"urn:uuid:77cef538-3c15-41c9-8a10-fbbb89fb396a"},"code":[{"coding":[{"system":"https://fhir.hl7.org.uk/STU3/CodeSystem/CareConnect-SDSJobRoleName-1","code":"R1480","display":"Healthcare Assistant"}]}]}},{"fullUrl":"urn:uuid:2db180bc-98fb-4b98-aab1-77a4e6ccd19f","resource":{"resourceType":"Organization","id":"2db180bc-98fb-4b98-aab1-77a4e6ccd19f","meta":{"profile":["https://fhir.hl7.org.uk/STU3/StructureDefinition/CareConnect-Organization-1"]},"identifier":[{"system":"https://fhir.nhs.uk/Id/ods-organization-code","value":"A111111"}],"name":"Canvas Health Centre","telecom":[{"system":"phone","value":"01234 956412","use":"work"}],"address":[{"use":"work","line":["27 Acacia Road"],"postalCode":"BM9 6PM"}]}},{"fullUrl":"urn:uuid:77cef538-3c15-41c9-8a10-fbbb89fb396a","resource":{"resourceType":"Organization","id":"77cef538-3c15-41c9-8a10-fbbb89fb396a","meta":{"profile":["https://fhir.hl7.org.uk/STU3/StructureDefinition/CareConnect-Organization-1"]},"identifier":[{"system":"https://fhir.nhs.uk/Id/ods-organization-code","value":"RX0000"}],"name":"St Crispin's Hospital","address":[{"city":"Donaldstown","postalCode":"DO1 4XP"}]}}]}