{"resourceType":"Bundle","id":"cb5626c6-ef5b-486d-9de9-e193d7cfd9d0","meta":{"lastUpdated":"2015-02-12T21:00:00+00:00","profile":["https://fhir.nhs.uk/STU3/StructureDefinition/ITK-Document-Bundle-1"]},"identifier":{"system":"https://tools.ietf.org/html/rfc4122","value":"434f40c3-de6c-435a-914d-fb274b9a5e99"},"type":"document","entry":[{"fullUrl":"urn:uuid:6c15fc6e-e017-4ead-b12a-d7d05370d1c4","resource":{"resourceType":"Composition","id":"6c15fc6e-e017-4ead-b12a-d7d05370d1c4","meta":{"profile":["https://fhir.nhs.uk/STU3/StructureDefinition/CareConnect-ITK-ECD-Composition-1"]},"extension":[{"url":"https://fhir.hl7.org.uk/STU3/StructureDefinition/Extension-CareConnect-CareSettingType-1","valueCodeableConcept":{"coding":[{"system":"http://snomed.info/sct","code":"394576009","display":"Accident & emergency"}]}}],"identifier":{"system":"https://tools.ietf.org/html/rfc4122","value":"2d361270-039f-4a48-827b-ef255ff8b6c4"},"status":"final","type":{"coding":[{"system":"http://snomed.info/sct","code":"373942005","display":"Discharge summary"}]},"subject":{"reference":"urn:uuid:c8225cc8-8026-466f-80f8-fc2832a4b9d5"},"encounter":{"reference":"urn:uuid:9a20cb92-354a-4015-82ec-ab0252efc5b9"},"date":"2015-02-12T19:00:00+00:00","author":[{"reference":"urn:uuid:369d88a8-9f6b-407f-8560-6ee9d7ccc8bb"}],"title":"Accident & Emergency Discharge summary","custodian":{"reference":"urn:uuid:120633ae-1a20-4e0e-b807-b78fb59679cc"},"section":[{"title":"Allergies and adverse reactions","code":{"coding":[{"system":"http://snomed.info/sct","code":"886921000000105","display":"Allergies and adverse reactions"}]},"text":{"status":"additional","div":"<div xmlns=\"http://www.w3.org/1999/xhtml\"><table width=\"100%\"><tbody><tr><th>Causative agent</th><td>Penicillin -class of antibiotic</td></tr><tr><th>Description of reaction</th><td>Eruption due to drug</td></tr><tr><th>Severity</th><td>Mild</td></tr><tr><th>Certainty</th><td>Certain</td></tr><tr><th>Comment</th><td>No swelling</td></tr></tbody></table></div>"},"entry":[{"reference":"urn:uuid:b37c89af-c5da-425f-8e6d-58c043ccf94b"}]},{"title":"Attendance details","code":{"coding":[{"system":"http://snomed.info/sct","code":"1077881000000105","display":"Attendance details"}]},"text":{"status":"additional","div":"<div xmlns=\"http://www.w3.org/1999/xhtml\"><table width=\"100%\"><tbody><tr><th>Date and time of contact</th><td>12-Feb-2015 07:00</td></tr></tbody></table></div>"}},{"title":"Clinical narrative","code":{"coding":[{"system":"http://snomed.info/sct","code":"1077901000000108","display":"Clinical narrative"}]},"text":{"status":"additional","div":"<div xmlns=\"http://www.w3.org/1999/xhtml\"><table width=\"100%\"><tbody><tr><th>Clinical narrative</th></tr><tr><td><p>60 year old man complaining of chest pain lasting around 2 hours.</p><p>Examination unremarkable.</p><p>Inferior ischaemic changes on ECG.</p></td></tr></tbody></table><table><tbody><tr><td><pre>\r\nFull Blood Count      \r\n      \r\nTest\t\t\t\t\t\tValue\t\t\tUnits\t\t\tReference Range\r\nWhite Cell Count\t\t\t\t11.1\t\t\tx10*9/L\t\t\t3.5 - 10.0\r\nRed Cell Count\t\t\t\t\t5.0\t\t\tx10*12/L\t\t4.25 - 5.75 \r\nHaemoglobin\t\t\t\t\t150\t\t\tg/L\t\t\t13.0 - 17.0\r\nHaematocrit\t\t\t\t\t0.230\t\t\tL/L\t\t\t0.400 - 0.500\r\nMean Cell Volume\t\t\t\t90\t\t\tfL\t\t\t84 - 98\r\nMean Cell Hb\t\t\t\t\t33.0\t\t\tpg\t\t\t27.5 - 32.0\r\nMean Cell Hb Con\t\t\t\t34.0\t\t\tpg\t\t\t31.0 - 35.0\r\nRDW\t\t\t\t\t\t12.0\t\t\t%\t\t\t&lt; 14.5\r\nPlatelet Count\t\t\t\t\t300\t\t\tx10*9/L\t\t\t150 - 400\r\n\r\nMachine Differential      \r\n      \r\nTest\t\t\t\t\t\tValue\t\t\tUnits\t\t\tReference Range\r\nNeutrophils\t\t\t\t\t7.0\t\t\tx10*9/L\t\t\t1.7 - 7.5\r\nLymphocytes\t\t\t\t\t3.5\t\t\tx10*9/L\t\t\t1.0 - 3.5\r\nMonocytes\t\t\t\t\t0.3\t\t\tx10*9/L\t\t\t&lt; 0.6\r\nEosinophils\t\t\t\t\t0.4\t\t\tx10*9/L\t\t\t&lt; 0.4\r\nBasophils\t\t\t\t\t0.1\t\t\tx10*9/L\t\t\t&lt; 0.1\r\nLUCs\t\t\t\t\t\t0.2\t\t\tx10*9/L\t\t\t&lt; 0.4\r\n      </pre></td></tr></tbody></table></div>"}},{"title":"Contact for further information","code":{"coding":[{"system":"http://snomed.info/sct","code":"1077931000000102","display":"Contact for further information"}]},"text":{"status":"additional","div":"<div xmlns=\"http://www.w3.org/1999/xhtml\"><table width=\"100%\"><tbody><tr><th>Contact for further information</th><td>Dr Paul Rastall Tel: 0113 6323200</td></tr></tbody></table></div>"}},{"title":"Diagnoses","code":{"coding":[{"system":"http://snomed.info/sct","code":"887161000000102","display":"Diagnoses"}]},"text":{"status":"generated","div":"<div xmlns=\"http://www.w3.org/1999/xhtml\"><table width=\"100%\"><tbody><tr><th>Diagnosis name</th><td>Acute ST segment elevation myocardial infarction</td></tr></tbody></table></div>"},"entry":[{"reference":"urn:uuid:0a46351b-bfe1-4085-956e-15d3b172e36f"}]},{"title":"Discharge details","code":{"coding":[{"system":"http://snomed.info/sct","code":"886811000000106","display":"Discharge details"}]},"text":{"status":"extensions","div":"<div xmlns=\"http://www.w3.org/1999/xhtml\"><table width=\"100%\"><tbody><tr><th>Discharge status</th><td>Streamed from emergency department to urgent care service following initial assessment</td></tr><tr><th>Date/time of discharge</th><td>12-Feb-2015 08:00</td></tr><tr><th>Discharge destination</th><td>NHS other Hospital Provider - Ward for general Patients or the younger physically disabled</td></tr></tbody></table></div>"},"entry":[{"reference":"urn:uuid:9a20cb92-354a-4015-82ec-ab0252efc5b9"}]},{"title":"GP practice","code":{"coding":[{"system":"http://snomed.info/sct","code":"886711000000101","display":"GP practice"}]},"text":{"status":"additional","div":"<div xmlns=\"http://www.w3.org/1999/xhtml\"><table width=\"100%\"><tbody><tr><th>GP name</th><td><p>Prefix: Dr</p><p>Given Name: John</p><p>Family Name: Lorenzo</p></td></tr><tr><th>GP practice details</th><td><p>Name: MGP Medical Centre</p><p>Address:</p><p>Address Line: 1 MGP House, Overtown</p><p>City: Leeds</p><p>Post Code: LS21 7PA</p></td></tr></tbody></table></div>"},"entry":[{"reference":"urn:uuid:e4058bb2-bf1a-47a4-ab10-1471161380a1"}]},{"title":"Information and advice given","code":{"coding":[{"system":"http://snomed.info/sct","code":"1052951000000105","display":"Information and advice given"}]},"text":{"status":"additional","div":"<div xmlns=\"http://www.w3.org/1999/xhtml\"><table width=\"100%\"><tbody><tr><th>Information and advice given</th><td>Patient advised to be admitted to ward for further tests after ECG results showed inferior ischaemic changes.</td></tr></tbody></table></div>"}},{"title":"Medications and medical devices","code":{"coding":[{"system":"http://snomed.info/sct","code":"933361000000108","display":"Medications and medical devices"}]},"text":{"status":"additional","div":"<div xmlns=\"http://www.w3.org/1999/xhtml\"><table width=\"100%\"><tbody><tr><th>Medication name</th><td>Ramipril 2.5mg tablets (A A H Pharmaceuticals Ltd)</td></tr><tr><th>Form</th><td>Tablet</td></tr><tr><th>Route</th><td>Oral</td></tr><tr><th>Dose directions description</th><td>One 2.5mg tablet once a day.</td></tr><tr><th>Status</th><td>Continued</td></tr></tbody></table><table width=\"100%\"><tbody><tr><th>Medication name</th><td>Aspirin 75mg tablets (Sigma Pharmaceuticals Plc)</td></tr><tr><th>Form</th><td>Tablet</td></tr><tr><th>Route</th><td>Oral</td></tr><tr><th>Dose directions description</th><td>Take one 75mg tablet once a day.</td></tr><tr><th>Status</th><td>Continued</td></tr></tbody></table><table width=\"100%\"><tbody><tr><th>Medication name</th><td>Simvastatin 40mg tablets (Brown &amp; Burk UK Ltd)</td></tr><tr><th>Form</th><td>Tablet</td></tr><tr><th>Route</th><td>Oral</td></tr><tr><th>Dose directions description</th><td>Take one 40mg tablet once a day.</td></tr><tr><th>Status</th><td>Continued</td></tr></tbody></table><table width=\"100%\"><tbody><tr><th>Medication name</th><td>Bisoprolol 5mg tablets (A A H Pharmaceuticals Ltd)</td></tr><tr><th>Form</th><td>Tablet</td></tr><tr><th>Route</th><td>Oral</td></tr><tr><th>Dose directions description</th><td>Take one 5mg tablet daily.</td></tr><tr><th>Comment/recommendation</th><td>Recommend Uptitrate according to BP and HR</td></tr><tr><th>Status</th><td>Continued</td></tr></tbody></table></div>"},"entry":[{"reference":"urn:uuid:e3c8b45f-22d4-4ce6-970c-10a959831dca"}]},{"title":"Patient demographics","code":{"coding":[{"system":"http://snomed.info/sct","code":"886731000000109","display":"Patient demographics"}]},"text":{"status":"generated","div":"<div xmlns=\"http://www.w3.org/1999/xhtml\"><table width=\"100%\"><tbody><tr><th>Patient name</th><td><p>Prefix: Mr</p><p>Given Name: Richard</p><p>Family Name: Smith</p></td></tr><tr><th>Date of birth</th><td>1 January 1957</td></tr><tr><th>Gender</th><td>Male</td></tr><tr><th>NHS number</th><td>1352465790</td></tr><tr><th>Patient address</th><td><p>Address Line: 21, Grove Street, Overtown</p><p>City: Leeds</p><p>Post Code: LS21 1PF</p></td></tr></tbody></table></div>"},"entry":[{"reference":"urn:uuid:c8225cc8-8026-466f-80f8-fc2832a4b9d5"}]},{"title":"Person completing record","code":{"coding":[{"system":"http://snomed.info/sct","code":"887231000000104","display":"Person completing record"}]},"text":{"status":"generated","div":"<div xmlns=\"http://www.w3.org/1999/xhtml\"><table width=\"100%\"><tbody><tr><th>Name</th><td><p>Prefix: Dr</p><p>Given Name: Paul</p><p>Family Name: Rastall</p></td></tr></tbody></table></div>"},"entry":[{"reference":"urn:uuid:369d88a8-9f6b-407f-8560-6ee9d7ccc8bb"}]},{"title":"Plan and requested actions","code":{"coding":[{"system":"http://snomed.info/sct","code":"887201000000105","display":"Plan and requested actions"}]},"text":{"status":"additional","div":"<div xmlns=\"http://www.w3.org/1999/xhtml\"><table width=\"100%\"><tbody><tr><th>Action</th><td><p>Patient has agreed to be admitted to Cramer ward for further tests to investigate causes of his chest pain on 12 February 2015.</p><p>Person responsible: Dr. Paul Rastall (Accident and Emergency Consultant, St. James's University Hospital Accident and Emergency Department)</p><p>Status: Completed</p><p>Outcome: Patient expects to find out the more information about the reasons for his chest pain when tests are carried out after admission.</p></td></tr></tbody></table></div>"}},{"title":"Presenting complaints or issues","code":{"coding":[{"system":"http://snomed.info/sct","code":"886891000000102","display":"Presenting complaints or issues"}]},"text":{"status":"generated","div":"<div xmlns=\"http://www.w3.org/1999/xhtml\"><table width=\"100%\"><tbody><tr><th>Presenting complaints or issue</th><td>Chest pain</td></tr></tbody></table></div>"},"entry":[{"reference":"urn:uuid:0a46351b-bfe1-4085-956e-15d3b172e36f"}]},{"title":"Procedures","code":{"coding":[{"system":"http://snomed.info/sct","code":"887171000000109","display":"Procedures"}]},"text":{"status":"additional","div":"<div xmlns=\"http://www.w3.org/1999/xhtml\"><table><tbody><tr><th>Procedure name</th><td>Electrocardiographic monitoring</td></tr><tr><th>Comment</th><td>ECGs showed inferior ischaemic changes.</td></tr></tbody></table></div>"},"entry":[{"reference":"urn:uuid:1e04ce96-6e52-4f82-bc26-93c89c5836a1"}]},{"title":"Referrer details","code":{"coding":[{"system":"http://snomed.info/sct","code":"1052891000000108","display":"Referrer details"}]},"text":{"status":"additional","div":"<div xmlns=\"http://www.w3.org/1999/xhtml\"><table width=\"100%\"><tbody><tr><th>Referrer details</th><td>Self-referral to accident and emergency department</td></tr></tbody></table></div>"}},{"title":"Senior reviewing clinician","code":{"coding":[{"system":"http://snomed.info/sct","code":"1078901000000109","display":"Senior reviewing clinician"}]},"text":{"status":"generated","div":"<div xmlns=\"http://www.w3.org/1999/xhtml\"><table width=\"100%\"><tbody><tr><th>Name</th><td><p>Prefix: Mr</p><p>Family Name: Abacus</p></td></tr></tbody></table></div>"},"entry":[{"reference":"urn:uuid:d25fd1c6-2658-4db7-9af0-86c5f95e8ec9"}]}]}},{"fullUrl":"urn:uuid:9a20cb92-354a-4015-82ec-ab0252efc5b9","resource":{"resourceType":"Encounter","id":"9a20cb92-354a-4015-82ec-ab0252efc5b9","meta":{"profile":["https://fhir.nhs.uk/STU3/StructureDefinition/CareConnect-ITK-Encounter-1"]},"extension":[{"url":"https://fhir.hl7.org.uk/STU3/StructureDefinition/Extension-CareConnect-EmergencyCareDischargeStatus-1","valueCodeableConcept":{"coding":[{"system":"http://snomed.info/sct","code":"1077031000000103","display":"Streamed from emergency department to urgent care service following initial assessment"}]}}],"identifier":[{"system":"https://tools.ietf.org/html/rfc4122","value":"ff84120c-43fe-4059-8839-dad2c4f9869c"}],"status":"finished","class":{"system":"http://hl7.org/fhir/v3-ActEncounterCode","code":"EMER","display":"emergency"},"type":[{"coding":[{"system":"http://snomed.info/sct","code":"4525004","display":"Emergency department patient visit"}]}],"subject":{"reference":"urn:uuid:c8225cc8-8026-466f-80f8-fc2832a4b9d5"},"period":{"end":"2015-02-12T08:00:00+00:00"},"hospitalization":{"dischargeDisposition":{"coding":[{"system":"https://fhir.hl7.org.uk/STU3/CodeSystem/CareConnect-DischargeDestination-1","code":"51","display":"NHS other Hospital Provider - Ward for general Patients or the younger physically disabled"}]}}}},{"fullUrl":"urn:uuid:e3c8b45f-22d4-4ce6-970c-10a959831dca","resource":{"resourceType":"List","id":"e3c8b45f-22d4-4ce6-970c-10a959831dca","meta":{"profile":["https://fhir.nhs.uk/STU3/StructureDefinition/CareConnect-ITK-Medication-List-1"]},"identifier":[{"system":"https://tools.ietf.org/html/rfc4122","value":"d4f7c451-1523-4525-a5ed-420439bf04f9"}],"status":"current","mode":"snapshot","code":{"coding":[{"system":"http://snomed.info/sct","code":"1102411000000102","display":"Active medications"}]},"subject":{"reference":"urn:uuid:c8225cc8-8026-466f-80f8-fc2832a4b9d5"},"encounter":{"reference":"urn:uuid:9a20cb92-354a-4015-82ec-ab0252efc5b9"},"source":{"reference":"urn:uuid:369d88a8-9f6b-407f-8560-6ee9d7ccc8bb"},"entry":[{"item":{"reference":"urn:uuid:86442fdb-15ad-41cb-bd6a-f9a85db48d07"}},{"item":{"reference":"urn:uuid:77ae6ef0-7a02-4845-bbde-4a6e5739c727"}},{"item":{"reference":"urn:uuid:a5b3e68f-0f80-4077-96e7-c41a23e14fd0"}},{"item":{"reference":"urn:uuid:4d3001fa-bf73-4a4a-b950-d9c6a4b405bb"}}]}},{"fullUrl":"urn:uuid:86442fdb-15ad-41cb-bd6a-f9a85db48d07","resource":{"resourceType":"MedicationStatement","id":"86442fdb-15ad-41cb-bd6a-f9a85db48d07","meta":{"profile":["https://fhir.nhs.uk/STU3/StructureDefinition/CareConnect-ITK-MedicationStatement-1"]},"extension":[{"url":"https://fhir.hl7.org.uk/STU3/StructureDefinition/Extension-CareConnect-MedicationChangeSummary-1","extension":[{"url":"status","valueCode":"Continued"}]}],"status":"active","medicationReference":{"reference":"urn:uuid:f4d39a59-b5e0-4d35-af9e-e2ae09a2b7fb"},"subject":{"reference":"urn:uuid:c8225cc8-8026-466f-80f8-fc2832a4b9d5"},"taken":"y","dosage":[{"text":"One 2.5mg tablet once a day.","route":{"coding":[{"system":"http://snomed.info/sct","code":"26643006","display":"Oral"}]}}]}},{"fullUrl":"urn:uuid:77ae6ef0-7a02-4845-bbde-4a6e5739c727","resource":{"resourceType":"MedicationStatement","id":"77ae6ef0-7a02-4845-bbde-4a6e5739c727","meta":{"profile":["https://fhir.nhs.uk/STU3/StructureDefinition/CareConnect-ITK-MedicationStatement-1"]},"extension":[{"url":"https://fhir.hl7.org.uk/STU3/StructureDefinition/Extension-CareConnect-MedicationChangeSummary-1","extension":[{"url":"status","valueCode":"Continued"}]}],"status":"active","medicationReference":{"reference":"urn:uuid:c51eda1e-bc1f-461c-8104-61c948c232be"},"subject":{"reference":"urn:uuid:c8225cc8-8026-466f-80f8-fc2832a4b9d5"},"taken":"y","dosage":[{"text":"Take one 75mg tablet once a day.","route":{"coding":[{"system":"http://snomed.info/sct","code":"26643006","display":"Oral"}]}}]}},{"fullUrl":"urn:uuid:a5b3e68f-0f80-4077-96e7-c41a23e14fd0","resource":{"resourceType":"MedicationStatement","id":"a5b3e68f-0f80-4077-96e7-c41a23e14fd0","meta":{"profile":["https://fhir.nhs.uk/STU3/StructureDefinition/CareConnect-ITK-MedicationStatement-1"]},"extension":[{"url":"https://fhir.hl7.org.uk/STU3/StructureDefinition/Extension-CareConnect-MedicationChangeSummary-1","extension":[{"url":"status","valueCode":"Continued"}]}],"status":"active","medicationReference":{"reference":"urn:uuid:edac8e03-894b-4793-8bca-fe3e0517aa84"},"subject":{"reference":"urn:uuid:c8225cc8-8026-466f-80f8-fc2832a4b9d5"},"taken":"y","dosage":[{"text":"Take one 40mg tablet once a day.","route":{"coding":[{"system":"http://snomed.info/sct","code":"26643006","display":"Oral"}]}}]}},{"fullUrl":"urn:uuid:4d3001fa-bf73-4a4a-b950-d9c6a4b405bb","resource":{"resourceType":"MedicationStatement","id":"4d3001fa-bf73-4a4a-b950-d9c6a4b405bb","meta":{"profile":["https://fhir.nhs.uk/STU3/StructureDefinition/CareConnect-ITK-MedicationStatement-1"]},"extension":[{"url":"https://fhir.hl7.org.uk/STU3/StructureDefinition/Extension-CareConnect-MedicationChangeSummary-1","extension":[{"url":"status","valueCode":"Continued"}]}],"status":"active","medicationReference":{"reference":"urn:uuid:2f9ea778-315b-41ae-aa1c-07d4fb4f6f42"},"subject":{"reference":"urn:uuid:c8225cc8-8026-466f-80f8-fc2832a4b9d5"},"taken":"y","dosage":[{"text":"Take one 5mg tablet daily.","route":{"coding":[{"system":"http://snomed.info/sct","code":"26643006","display":"Oral"}]}}]}},{"fullUrl":"urn:uuid:f4d39a59-b5e0-4d35-af9e-e2ae09a2b7fb","resource":{"resourceType":"Medication","id":"f4d39a59-b5e0-4d35-af9e-e2ae09a2b7fb","meta":{"profile":["https://fhir.nhs.uk/STU3/StructureDefinition/CareConnect-ITK-Medication-1"]},"code":{"coding":[{"system":"http://snomed.info/sct","code":"5884511000001100","display":"Ramipril 2.5mg tablets (A A H Pharmaceuticals Ltd)"}]},"form":{"coding":[{"system":"http://snomed.info/sct","code":"385055001","display":"Tablet"}]}}},{"fullUrl":"urn:uuid:c51eda1e-bc1f-461c-8104-61c948c232be","resource":{"resourceType":"Medication","id":"c51eda1e-bc1f-461c-8104-61c948c232be","meta":{"profile":["https://fhir.nhs.uk/STU3/StructureDefinition/CareConnect-ITK-Medication-1"]},"code":{"coding":[{"system":"http://snomed.info/sct","code":"29774911000001105","display":"Aspirin 75mg tablets (Sigma Pharmaceuticals Plc)"}]},"form":{"coding":[{"system":"http://snomed.info/sct","code":"385055001","display":"Tablet"}]}}},{"fullUrl":"urn:uuid:edac8e03-894b-4793-8bca-fe3e0517aa84","resource":{"resourceType":"Medication","id":"edac8e03-894b-4793-8bca-fe3e0517aa84","meta":{"profile":["https://fhir.nhs.uk/STU3/StructureDefinition/CareConnect-ITK-Medication-1"]},"code":{"coding":[{"system":"http://snomed.info/sct","code":"32495011000001103","display":"Simvastatin 40mg tablets (Brown & Burk UK Ltd)"}]},"form":{"coding":[{"system":"http://snomed.info/sct","code":"385055001","display":"Tablet"}]}}},{"fullUrl":"urn:uuid:2f9ea778-315b-41ae-aa1c-07d4fb4f6f42","resource":{"resourceType":"Medication","id":"2f9ea778-315b-41ae-aa1c-07d4fb4f6f42","meta":{"profile":["https://fhir.nhs.uk/STU3/StructureDefinition/CareConnect-ITK-Medication-1"]},"code":{"coding":[{"system":"http://snomed.info/sct","code":"249811000001104","display":"Bisoprolol 5mg tablets (A A H Pharmaceuticals Ltd)"}]},"form":{"coding":[{"system":"http://snomed.info/sct","code":"385055001","display":"Tablet"}]}}},{"fullUrl":"urn:uuid:b37c89af-c5da-425f-8e6d-58c043ccf94b","resource":{"resourceType":"List","id":"b37c89af-c5da-425f-8e6d-58c043ccf94b","meta":{"profile":["https://fhir.nhs.uk/STU3/StructureDefinition/CareConnect-ITK-Allergy-List-1"]},"identifier":[{"system":"https://tools.ietf.org/html/rfc4122","value":"4344f700-a737-4796-9887-df3f3a546387"}],"status":"current","mode":"snapshot","code":{"coding":[{"system":"http://snomed.info/sct","code":"886921000000105","display":"Allergies and adverse reactions"}]},"subject":{"reference":"urn:uuid:c8225cc8-8026-466f-80f8-fc2832a4b9d5"},"encounter":{"reference":"urn:uuid:9a20cb92-354a-4015-82ec-ab0252efc5b9"},"source":{"reference":"urn:uuid:369d88a8-9f6b-407f-8560-6ee9d7ccc8bb"},"entry":[{"item":{"reference":"urn:uuid:4559a534-7ebc-4139-8ada-09627696710a"}}]}},{"fullUrl":"urn:uuid:4559a534-7ebc-4139-8ada-09627696710a","resource":{"resourceType":"AllergyIntolerance","id":"4559a534-7ebc-4139-8ada-09627696710a","meta":{"profile":["https://fhir.nhs.uk/STU3/StructureDefinition/CareConnect-ITK-AllergyIntolerance-1"]},"identifier":[{"system":"https://tools.ietf.org/html/rfc4122","value":"8c972218-c58a-4d8a-bc4a-c7ecedfb5d9f"}],"clinicalStatus":"active","verificationStatus":"confirmed","category":["medication"],"code":{"coding":[{"system":"http://snomed.info/sct","code":"373270004","display":"Penicillin -class of antibiotic-"}]},"patient":{"reference":"urn:uuid:c8225cc8-8026-466f-80f8-fc2832a4b9d5"},"reaction":[{"manifestation":[{"coding":[{"system":"http://snomed.info/sct","code":"28926001","display":"Eruption due to drug"}]}],"severity":"mild"}]}},{"fullUrl":"urn:uuid:0a46351b-bfe1-4085-956e-15d3b172e36f","resource":{"resourceType":"List","id":"0a46351b-bfe1-4085-956e-15d3b172e36f","meta":{"profile":["https://fhir.nhs.uk/STU3/StructureDefinition/CareConnect-ITK-Condition-List-1"]},"identifier":[{"system":"https://tools.ietf.org/html/rfc4122","value":"139e421f-ab9b-45f8-8e62-6185695bb6cf"}],"status":"current","mode":"snapshot","code":{"coding":[{"system":"http://snomed.info/sct","code":"887161000000102","display":"Diagnoses"}]},"subject":{"reference":"urn:uuid:c8225cc8-8026-466f-80f8-fc2832a4b9d5"},"encounter":{"reference":"urn:uuid:9a20cb92-354a-4015-82ec-ab0252efc5b9"},"source":{"reference":"urn:uuid:369d88a8-9f6b-407f-8560-6ee9d7ccc8bb"},"entry":[{"item":{"reference":"urn:uuid:50dc3efe-1826-4ee0-bcba-439c4fb38ff4"}},{"item":{"reference":"urn:uuid:80e53ab8-dcec-4b4d-aec2-eec9e00b5982"}}]}},{"fullUrl":"urn:uuid:50dc3efe-1826-4ee0-bcba-439c4fb38ff4","resource":{"resourceType":"Condition","id":"50dc3efe-1826-4ee0-bcba-439c4fb38ff4","meta":{"profile":["https://fhir.nhs.uk/STU3/StructureDefinition/CareConnect-ITK-Condition-1"]},"identifier":[{"system":"https://tools.ietf.org/html/rfc4122","value":"4ebf5635-7bae-4051-80e4-5e7e06a2e055"}],"clinicalStatus":"active","category":[{"coding":[{"system":"https://fhir.hl7.org.uk/STU3/CodeSystem/CareConnect-ConditionCategory-1","code":"presenting-complaint","display":"Presenting Complaint"}]}],"code":{"coding":[{"system":"http://snomed.info/sct","code":"29857009","display":"Chest pain"}]},"subject":{"reference":"urn:uuid:c8225cc8-8026-466f-80f8-fc2832a4b9d5"},"context":{"reference":"urn:uuid:9a20cb92-354a-4015-82ec-ab0252efc5b9"}}},{"fullUrl":"urn:uuid:80e53ab8-dcec-4b4d-aec2-eec9e00b5982","resource":{"resourceType":"Condition","id":"80e53ab8-dcec-4b4d-aec2-eec9e00b5982","meta":{"profile":["https://fhir.nhs.uk/STU3/StructureDefinition/CareConnect-ITK-Condition-1"]},"identifier":[{"system":"https://tools.ietf.org/html/rfc4122","value":"49e65c66-8c9f-4d54-a90d-a556e0e43f04"}],"clinicalStatus":"active","category":[{"coding":[{"system":"https://fhir.hl7.org.uk/STU3/CodeSystem/CareConnect-ConditionCategory-1","code":"encounter-diagnosis","display":"Encounter Diagnosis"}]}],"code":{"coding":[{"system":"http://snomed.info/sct","code":"401303003","display":"Acute ST segment elevation myocardial infarction"}]},"subject":{"reference":"urn:uuid:c8225cc8-8026-466f-80f8-fc2832a4b9d5"},"context":{"reference":"urn:uuid:9a20cb92-354a-4015-82ec-ab0252efc5b9"}}},{"fullUrl":"urn:uuid:1e04ce96-6e52-4f82-bc26-93c89c5836a1","resource":{"resourceType":"List","id":"1e04ce96-6e52-4f82-bc26-93c89c5836a1","meta":{"profile":["https://fhir.nhs.uk/STU3/StructureDefinition/CareConnect-ITK-Procedure-List-1"]},"identifier":[{"system":"https://tools.ietf.org/html/rfc4122","value":"cdd92a18-ffb2-4e3f-aacf-de0e01bb3120"}],"status":"current","mode":"snapshot","code":{"coding":[{"system":"http://snomed.info/sct","code":"887171000000109","display":"Procedures"}]},"subject":{"reference":"urn:uuid:c8225cc8-8026-466f-80f8-fc2832a4b9d5"},"encounter":{"reference":"urn:uuid:9a20cb92-354a-4015-82ec-ab0252efc5b9"},"source":{"reference":"urn:uuid:369d88a8-9f6b-407f-8560-6ee9d7ccc8bb"},"entry":[{"item":{"reference":"urn:uuid:1a65a852-c14e-42ae-ae88-46ca1dc4d67f"}}]}},{"fullUrl":"urn:uuid:1a65a852-c14e-42ae-ae88-46ca1dc4d67f","resource":{"resourceType":"Procedure","id":"1a65a852-c14e-42ae-ae88-46ca1dc4d67f","meta":{"profile":["https://fhir.nhs.uk/STU3/StructureDefinition/CareConnect-ITK-Procedure-1"]},"identifier":[{"system":"https://tools.ietf.org/html/rfc4122","value":"077287c1-28cc-4939-b3c4-5f3e97844ae0"}],"status":"completed","code":{"coding":[{"system":"http://snomed.info/sct","code":"46825001","display":"Electrocardiographic monitoring"}]},"subject":{"reference":"urn:uuid:c8225cc8-8026-466f-80f8-fc2832a4b9d5"},"context":{"reference":"urn:uuid:9a20cb92-354a-4015-82ec-ab0252efc5b9"}}},{"fullUrl":"urn:uuid:c8225cc8-8026-466f-80f8-fc2832a4b9d5","resource":{"resourceType":"Patient","id":"c8225cc8-8026-466f-80f8-fc2832a4b9d5","meta":{"profile":["https://fhir.hl7.org.uk/STU3/StructureDefinition/CareConnect-Patient-1"]},"identifier":[{"extension":[{"url":"https://fhir.hl7.org.uk/STU3/StructureDefinition/Extension-CareConnect-NHSNumberVerificationStatus-1","valueCodeableConcept":{"coding":[{"system":"https://fhir.hl7.org.uk/STU3/CodeSystem/CareConnect-NHSNumberVerificationStatus-1","code":"01","display":"Number present and verified"}]}}],"system":"https://fhir.nhs.uk/Id/nhs-number","value":"1352465790"}],"name":[{"use":"official","family":"Smith","given":["Richard"],"prefix":["Mr"]}],"gender":"male","birthDate":"1957-01-01","address":[{"line":["21, Grove Street, Overtown"],"city":"Leeds","postalCode":"LS21 1PF"}]}},{"fullUrl":"urn:uuid:369d88a8-9f6b-407f-8560-6ee9d7ccc8bb","resource":{"resourceType":"Practitioner","id":"369d88a8-9f6b-407f-8560-6ee9d7ccc8bb","meta":{"profile":["https://fhir.hl7.org.uk/STU3/StructureDefinition/CareConnect-Practitioner-1"]},"identifier":[{"system":"https://fhir.hl7.org.uk/Id/gmc-number","value":"6122477"}],"name":[{"family":"Rastall","given":["Paul"],"prefix":["Dr"]}]}},{"fullUrl":"urn:uuid:d25fd1c6-2658-4db7-9af0-86c5f95e8ec9","resource":{"resourceType":"Practitioner","id":"d25fd1c6-2658-4db7-9af0-86c5f95e8ec9","meta":{"profile":["https://fhir.hl7.org.uk/STU3/StructureDefinition/CareConnect-Practitioner-1"]},"identifier":[{"system":"https://fhir.nhs.uk/Id/local-practitioner-identifier","value":"7773333"}],"name":[{"family":"Abacus","prefix":["Mr"]}]}},{"fullUrl":"urn:uuid:d9174bf6-0662-4ae1-b39a-f9fec278835d","resource":{"resourceType":"PractitionerRole","id":"d9174bf6-0662-4ae1-b39a-f9fec278835d","meta":{"profile":["https://fhir.hl7.org.uk/STU3/StructureDefinition/CareConnect-PractitionerRole-1"]},"practitioner":{"reference":"urn:uuid:369d88a8-9f6b-407f-8560-6ee9d7ccc8bb"},"organization":{"reference":"urn:uuid:120633ae-1a20-4e0e-b807-b78fb59679cc"},"code":[{"coding":[{"system":"https://fhir.hl7.org.uk/STU3/CodeSystem/CareConnect-SDSJobRoleName-1","code":"R0050","display":"Consultant"}]}]}},{"fullUrl":"urn:uuid:e4058bb2-bf1a-47a4-ab10-1471161380a1","resource":{"resourceType":"Organization","id":"e4058bb2-bf1a-47a4-ab10-1471161380a1","meta":{"profile":["https://fhir.hl7.org.uk/STU3/StructureDefinition/CareConnect-Organization-1"]},"identifier":[{"system":"https://fhir.nhs.uk/Id/ods-organization-code","value":"GP123456"}],"name":"MGP Medical Centre","address":[{"line":["1 MGP House, Overtown"],"city":"Leeds","postalCode":"LS21 7PA"}]}},{"fullUrl":"urn:uuid:120633ae-1a20-4e0e-b807-b78fb59679cc","resource":{"resourceType":"Organization","id":"120633ae-1a20-4e0e-b807-b78fb59679cc","meta":{"profile":["https://fhir.hl7.org.uk/STU3/StructureDefinition/CareConnect-Organization-1"]},"identifier":[{"system":"https://fhir.nhs.uk/Id/ods-organization-code","value":"RR8"}],"name":"Leeds Teaching Hospitals NHS Trust"}}]}