{"resourceType":"Bundle","id":"f862ec24-e05a-42d1-aea5-d0a9c092e6ae","meta":{"lastUpdated":"2015-04-07T19:30:00+00:00","profile":["https://fhir.nhs.uk/STU3/StructureDefinition/ITK-Document-Bundle-1"]},"identifier":{"system":"https://tools.ietf.org/html/rfc4122","value":"f36927ef-7703-45ed-b0e5-6ec6723cf0f6"},"type":"document","entry":[{"fullUrl":"urn:uuid:3aa7a8bf-0628-44f2-8c1f-bdf81ac54b14","resource":{"resourceType":"Composition","id":"3aa7a8bf-0628-44f2-8c1f-bdf81ac54b14","meta":{"profile":["https://fhir.nhs.uk/STU3/StructureDefinition/CareConnect-ITK-MH-Composition-1"]},"extension":[{"url":"https://fhir.hl7.org.uk/STU3/StructureDefinition/Extension-CareConnect-CareSettingType-1","valueCodeableConcept":{"coding":[{"system":"http://snomed.info/sct","code":"892811000000109","display":"Adult mental health service"}]}}],"identifier":{"system":"https://tools.ietf.org/html/rfc4122","value":"6d377e88-ff86-4db9-9c9b-6c61411c50f9"},"status":"final","type":{"coding":[{"system":"http://snomed.info/sct","code":"373942005","display":"Discharge summary"}]},"subject":{"reference":"urn:uuid:f919dedc-3c62-462f-a171-8d86c5aaa074"},"encounter":{"reference":"urn:uuid:cf080749-31c9-4ff6-b2d8-a2dd3dce851c"},"date":"2015-04-07T17:30:00+00:00","author":[{"reference":"urn:uuid:04d089aa-be17-42fd-a6fc-961245696263"}],"title":"Adult Mental Health Service Discharge Summary","custodian":{"reference":"urn:uuid:6de0a05a-d4b2-4f67-b0d4-80cc2a670f90"},"section":[{"title":"Admission details","code":{"coding":[{"system":"http://snomed.info/sct","code":"886781000000108","display":"Admission details"}]},"text":{"status":"additional","div":"<div xmlns=\"http://www.w3.org/1999/xhtml\"><table width=\"100%\"><tbody><tr><th>Reason for admission</th><td>Paracetamol overdose of undetermined intent</td></tr><tr><th>Admission method</th><td>Accident and emergency or dental casualty department of the Health Care Provider</td></tr><tr><th>Legal status on admission</th><td>Informal</td></tr><tr><th>Source of admission</th><td>NHS other Hospital Provider - Ward for general Patients or the younger physically disabled or A and E department</td></tr><tr><th>Date/time of admission</th><td>13-Mar-2015 12:00</td></tr></tbody></table></div>"},"entry":[{"reference":"urn:uuid:cf080749-31c9-4ff6-b2d8-a2dd3dce851c"}]},{"title":"Allergies and adverse reactions","code":{"coding":[{"system":"http://snomed.info/sct","code":"886921000000105","display":"Allergies and adverse reactions"}]},"text":{"status":"generated","div":"<div xmlns=\"http://www.w3.org/1999/xhtml\"><table width=\"100%\"><tbody><tr><th>Causative agent</th><td>Peanut - dietary</td></tr><tr><th>Description of reaction</th><td>Weal</td></tr><tr><th>Date recorded</th><td>13 March 2015</td></tr></tbody></table></div>"},"entry":[{"reference":"urn:uuid:95e8f8d0-dfc3-4c72-a9dc-7ba1ccd1fab4"}]},{"title":"Assessment scales","code":{"coding":[{"system":"http://snomed.info/sct","code":"887141000000103","display":"Assessment scales"}]},"text":{"status":"additional","div":"<div xmlns=\"http://www.w3.org/1999/xhtml\"><table width=\"100%\"><tbody><tr><th>Assessment scale</th><td>HoNOS Total = 19</td></tr></tbody></table></div>"}},{"title":"Clinical summary","code":{"coding":[{"system":"http://snomed.info/sct","code":"887181000000106","display":"Clinical summary"}]},"text":{"status":"additional","div":"<div xmlns=\"http://www.w3.org/1999/xhtml\"><table width=\"100%\"><tbody><tr><th>Clinical Summary</th></tr><tr><td><p>Jon was taken to casualty and admitted to a medical ward two weeks ago after taking a\r\n serious overdose of paracetamol and drinking half a bottle of whisky.</p><p>He was found unconscious face down among the bushes in a local park.</p><p>Jon had been depressed for some months prior to this having lost his job as a building surveyor.</p><p>He was having difficulty sleeping and often waking early, sometimes at three of four in the morning.</p></td></tr><tr><th>Treatments and interventions and changes made to treatments</th></tr><tr><td><p>While on the ward his suicidal urges have reduced and he has been started on an atypical antidepressant to good effect.</p><p>He now regrets attempting to take his own life, is thankful for the support of his family and looks forward \r\nto commencing psychological therapies for depression (IAPT) and seeking new employment.</p></td></tr></tbody></table></div>"}},{"title":"Diagnoses","code":{"coding":[{"system":"http://snomed.info/sct","code":"887161000000102","display":"Diagnoses"}]},"text":{"status":"generated","div":"<div xmlns=\"http://www.w3.org/1999/xhtml\"><table width=\"100%\"><tbody><tr><th>Diagnosis name</th><td>[X]Severe depressive episode without psychotic symptoms</td></tr></tbody></table></div>"},"entry":[{"reference":"urn:uuid:e2b1c9ff-4a34-45db-af57-5f6d72f8d1b9"}]},{"title":"Discharge details","code":{"coding":[{"system":"http://snomed.info/sct","code":"886811000000106","display":"Discharge details"}]},"text":{"status":"additional","div":"<div xmlns=\"http://www.w3.org/1999/xhtml\"><table width=\"100%\"><tbody><tr><th>Discharging consultant</th><td><p>Prefix: Dr</p><p>Given Name: Mike</p><p>Family Name: Scott</p></td></tr><tr><th>Discharging specialty/department</th><td>Adult mental illness - speciality</td></tr><tr><th>Discharge location</th><td><p>Name: Alder ward</p><p>Identifier: RR8ALD</p></td></tr><tr><th>Date/time of discharge</th><td>06-Apr-2015 13:00</td></tr><tr><th>Legal status on discharge</th><td>Informal</td></tr><tr><th>Discharge method</th><td>Patient discharged on clinical advice or with clinical consent</td></tr><tr><th>Discharge type</th><td>Usual place of residence unless listed below, for example, a private dwelling whether owner occupied or owned by Local Authority, housing association or other landlord. This includes wardened accommodation but not residential accommodation where health care is provided. It also includes Patients with no fixed abode.</td></tr></tbody></table></div>"},"entry":[{"reference":"urn:uuid:cf080749-31c9-4ff6-b2d8-a2dd3dce851c"},{"reference":"urn:uuid:44c853c7-a22f-49ce-8eb5-27a05c83e6ec"}]},{"title":"Distribution list","code":{"coding":[{"system":"http://snomed.info/sct","code":"887261000000109","display":"Distribution list"}]},"text":{"status":"generated","div":"<div xmlns=\"http://www.w3.org/1999/xhtml\"><table width=\"100%\"><tbody><tr><th>Name</th><td><p>Prefix: Mrs</p><p>Given Name: Gay</p><p>Family Name: Gillingham</p></td></tr><tr><th>Role</th><td>Consultant</td></tr><tr><th>Organisation name</th><td>Leeds Mental Health NHS Trust</td></tr></tbody></table><table width=\"100%\"><tbody><tr><th>Name</th><td><p>Prefix: Dr</p><p>Given Name: James</p><p>Family Name: Lozo</p></td></tr><tr><th>Role</th><td>General Medical Practitioner</td></tr><tr><th>Organisation name</th><td>MGP Medical Centre</td></tr></tbody></table></div>"},"entry":[{"reference":"urn:uuid:a74e1942-8ff8-4c4a-9edb-7b5e4e2f198c"},{"reference":"urn:uuid:5e414a77-d394-4248-a631-00e45ddb64a0"}]},{"title":"GP practice","code":{"coding":[{"system":"http://snomed.info/sct","code":"886711000000101","display":"GP practice"}]},"text":{"status":"additional","div":"<div xmlns=\"http://www.w3.org/1999/xhtml\"><table width=\"100%\"><tbody><tr><th>GP name</th><td><p>Prefix: Dr</p><p>Given Name: James</p><p>Family Name: Lozo</p></td></tr><tr><th>GP practice details</th><td><p>Name: MGP Medical Centre</p><p>Address:</p><p>Address Line: 1 MGP House, Overtown</p><p>City: Leeds</p><p>Post Code: LS21 7PA</p></td></tr></tbody></table></div>"},"entry":[{"reference":"urn:uuid:f9f24f89-646b-4a19-a6b1-cabfa3b612e1"}]},{"title":"Individual requirements","code":{"coding":[{"system":"http://snomed.info/sct","code":"1078911000000106","display":"Individual requirements"}]},"text":{"status":"additional","div":"<div xmlns=\"http://www.w3.org/1999/xhtml\"><table width=\"100%\"><tbody><tr><th>Individual requirements</th><td>No special requirements but always wants family to be kept informed</td></tr></tbody></table></div>"}},{"title":"Information and advice given","code":{"coding":[{"system":"http://snomed.info/sct","code":"1052951000000105","display":"Information and advice given"}]},"text":{"status":"additional","div":"<div xmlns=\"http://www.w3.org/1999/xhtml\"><table width=\"100%\"><tbody><tr><th>Information and advice given</th><td>Patient referred to local IAPT services for CBT for Depression.</td></tr></tbody></table></div>"}},{"title":"Investigation results","code":{"coding":[{"system":"http://snomed.info/sct","code":"1082101000000102","display":"Investigation results"}]},"text":{"status":"additional","div":"<div xmlns=\"http://www.w3.org/1999/xhtml\"><table><tbody><tr><th>Investigation result</th></tr><tr><td><pre>\r\nFull Blood Count      \r\n      \r\nTest\t\t\t\t\t\tValue\t\t\tUnits\t\t\tReference Range\r\nWhite Cell Count\t\t\t\t11.1\t\t\tx10*9/L\t\t\t3.5 - 10.0\r\nRed Cell Count\t\t\t\t\t5.0\t\t\tx10*12/L\t\t4.25 - 5.75 \r\nHaemoglobin\t\t\t\t\t150\t\t\tg/L\t\t\t13.0 - 17.0\r\nHaematocrit\t\t\t\t\t0.230\t\t\t\t\t\t0.400 - 0.500\r\nMean Cell Volume\t\t\t\t90\t\t\tfL\t\t\t84 - 98\r\nMean Cell Hb\t\t\t\t\t33.0\t\t\tpg\t\t\t27.5 - 32.0\r\nMean Cell Hb Con\t\t\t\t34.0\t\t\tpg\t\t\t31.0 - 35.0\r\nRDW\t\t\t\t\t\t12.0\t\t\t%\t\t\t&lt; 14.5\r\nPlatelet Count\t\t\t\t\t300\t\t\tx10*9/L\t\t\t150 - 400\r\n\r\nMachine Differential      \r\n      \r\nTest                  \t\t\t\tValue\t\t\tUnits        \t\tReference Range\r\nNeutrophils\t\t\t\t\t7.0\t\t\tx10*9/L\t\t\t1.7 - 7.5\r\nLymphocytes\t\t\t\t\t3.5\t\t\tx10*9/L\t\t\t1.0 - 3.5   \r\nMonocytes\t\t\t\t\t0.3\t\t\tx10*9/L\t\t\t&lt; 0.6  \r\nEosinophils\t\t\t\t\t0.4\t\t\tx10*9/L\t\t\t&lt; 0.4  \r\nBasophils\t\t\t\t\t0.1\t\t\tx10*9/L\t\t\t&lt; 0.1 \r\nLUCs\t\t\t\t\t\t0.2\t\t\tx10*9/L\t\t\t&lt; 0.4 \r\n      </pre></td></tr></tbody></table></div>"}},{"title":"Legal information","code":{"coding":[{"system":"http://snomed.info/sct","code":"886961000000102","display":"Legal information"}]},"text":{"status":"additional","div":"<div xmlns=\"http://www.w3.org/1999/xhtml\"><table width=\"100%\"><tbody><tr><th>Consent for treatment record</th><td>Patient has consented to treatment.</td></tr><tr><th>Mental capacity assessment</th><td>Not undertaken</td></tr><tr><th>Safeguarding issues</th><td>None</td></tr></tbody></table></div>"}},{"title":"Medications and medical devices","code":{"coding":[{"system":"http://snomed.info/sct","code":"933361000000108","display":"Medications and medical devices"}]},"text":{"status":"extensions","div":"<div xmlns=\"http://www.w3.org/1999/xhtml\"><table width=\"100%\"><tbody><tr><th>Medication name</th><td>Sertraline 100mg tablets (Bristol Laboratories Ltd)</td></tr><tr><th>Form</th><td>Tablet</td></tr><tr><th>Route</th><td>Oral</td></tr><tr><th>Dose directions description</th><td>Take two 100 mg tablets daily.</td></tr><tr><th>Status</th><td>Added</td></tr></tbody></table></div>"},"entry":[{"reference":"urn:uuid:972eeaba-9aec-4154-8925-9062cdcd95f0"}]},{"title":"Participation in research","code":{"coding":[{"system":"http://snomed.info/sct","code":"886751000000102","display":"Participation in research"}]},"text":{"status":"additional","div":"<div xmlns=\"http://www.w3.org/1999/xhtml\"><table width=\"100%\"><tbody><tr><th>Name of research study</th><td>No specific study currently identified, but patient agrees to be approached for potential participation in appropriate research.</td></tr></tbody></table></div>"}},{"title":"Patient and carer concerns, expectations and wishes","code":{"coding":[{"system":"http://snomed.info/sct","code":"1052941000000107","display":"Patient and carer concerns, expectations and wishes"}]},"text":{"status":"additional","div":"<div xmlns=\"http://www.w3.org/1999/xhtml\"><table width=\"100%\"><tbody><tr><th>Patient and carer concerns, expectations and wishes</th><td>Patient stated \"I do not want ECT.\"</td></tr></tbody></table></div>"}},{"title":"Patient demographics","code":{"coding":[{"system":"http://snomed.info/sct","code":"886731000000109","display":"Patient demographics"}]},"text":{"status":"additional","div":"<div xmlns=\"http://www.w3.org/1999/xhtml\"><table width=\"100%\"><tbody><tr><th>Patient name</th><td><p>Prefix: Mr</p><p>Given Name: Jon</p><p>Family Name: Burrows</p></td></tr><tr><th>Date of birth</th><td>10 September 1970</td></tr><tr><th>Gender</th><td>Male</td></tr><tr><th>NHS number</th><td>1234567890</td></tr><tr><th>Patient address</th><td><p>Address Line: 22, Brown Street, Overtown</p><p>City: Leeds</p><p>Post Code: LS22 2JK</p></td></tr><tr><th>Relevant contacts</th><td>Name: Eve Burrows <p>Relationship: Next of kin</p><p>Contact details: Tel. 07912678910 Email. eburrows@mymail.com</p></td></tr></tbody></table></div>"},"entry":[{"reference":"urn:uuid:f919dedc-3c62-462f-a171-8d86c5aaa074"}]},{"title":"Person completing record","code":{"coding":[{"system":"http://snomed.info/sct","code":"887231000000104","display":"Person completing record"}]},"text":{"status":"additional","div":"<div xmlns=\"http://www.w3.org/1999/xhtml\"><table width=\"100%\"><tbody><tr><th>Name</th><td><p>Prefix: Dr</p><p>Given Name: Mike</p><p>Family Name: Scott</p></td></tr><tr><th>Role</th><td>Consultant</td></tr><tr><th>Specialty</th><td>Adult mental illness - speciality</td></tr><tr><th>Date and time completed</th><td>07 April 2015 17:30</td></tr><tr><th>Contact details</th><td>Phone: 0113 111222 (Work)</td></tr><tr><th>Organisation</th><td><p>Name: Leeds Mental Health Trust,</p><p>Address Line: Twenty One Fifty, Thorpe Park,</p><p>City: Leeds</p><p>Post Code: LS15 8ZB</p></td></tr></tbody></table></div>"},"entry":[{"reference":"urn:uuid:44c853c7-a22f-49ce-8eb5-27a05c83e6ec"}]},{"title":"Plan and requested actions","code":{"coding":[{"system":"http://snomed.info/sct","code":"887201000000105","display":"Plan and requested actions"}]},"text":{"status":"additional","div":"<div xmlns=\"http://www.w3.org/1999/xhtml\"><table width=\"100%\"><tbody><tr><th>Actions for healthcare professionals</th><td><p>Routine follow up will be needed from Primary Care e.g. Well man clinic.</p><p>Person responsible: Dr Gillingham, Leeds Recovery and Support Team. </p><p>Status: Requested</p><p>Outcome and expectations: The patient expects to benefit from attendance at the Well man clinic.</p></td></tr><tr><th>Actions for patient or their carer</th><td>Patient to commence psychological therapies for depression.</td></tr><tr><th>Agreed with patient or legitimate patient representative</th><td>Patient has agreed to treatment plan.</td></tr></tbody></table></div>"}},{"title":"Procedures","code":{"coding":[{"system":"http://snomed.info/sct","code":"887171000000109","display":"Procedures"}]},"text":{"status":"generated","div":"<div xmlns=\"http://www.w3.org/1999/xhtml\"><table width=\"100%\"><tbody><tr><th>Procedure name</th><td>Assessment using health of the nation outcome scale</td></tr></tbody></table></div>"},"entry":[{"reference":"urn:uuid:3e5cc458-6e99-46c0-b334-6222258aa22a"}]},{"title":"Referrer details","code":{"coding":[{"system":"http://snomed.info/sct","code":"1052891000000108","display":"Referrer details"}]},"text":{"status":"generated","div":"<div xmlns=\"http://www.w3.org/1999/xhtml\"><table width=\"100%\"><tbody><tr><th>Referrer details</th><td><p>Name: Accident &amp; Emergency SJUH</p><p>Identifier: RR8A2</p></td></tr></tbody></table></div>"},"entry":[{"reference":"urn:uuid:9bbd320d-4cf4-48c5-a254-959703db5936"}]},{"title":"Safety alerts","code":{"coding":[{"system":"http://snomed.info/sct","code":"886931000000107","display":"Safety alerts"}]},"text":{"status":"additional","div":"<div xmlns=\"http://www.w3.org/1999/xhtml\"><table width=\"100%\"><tbody><tr><th>Risks to self</th><td>Has taken an overdose of paracetamol, but no risks to self on discharge providing patient continues his medication.</td></tr><tr><th>Risks to others</th><td>None</td></tr><tr><th>Risk from others</th><td>None</td></tr></tbody></table></div>"}},{"title":"Social context","code":{"coding":[{"system":"http://snomed.info/sct","code":"887051000000101","display":"Social context"}]},"text":{"status":"additional","div":"<div xmlns=\"http://www.w3.org/1999/xhtml\"><table width=\"100%\"><tbody><tr><th>Household composition</th><td>Lives with wife and two teenage daughters</td></tr><tr><th>Occupational history</th><td>Patient currently employed after having lost his job as a building surveyor.</td></tr><tr><th>Alcohol intake</th><td>Drank half a bottle of whisky prior to admittance to Emergency department. (Patient states he does not normally drink.)</td></tr><tr><th>Drug/substance use</th><td>Patient stated he \"Took a few paracetamol\" prior to admittance to Emergency department. No history of substance use.</td></tr></tbody></table></div>"}}]}},{"fullUrl":"urn:uuid:cf080749-31c9-4ff6-b2d8-a2dd3dce851c","resource":{"resourceType":"Encounter","id":"cf080749-31c9-4ff6-b2d8-a2dd3dce851c","meta":{"profile":["https://fhir.nhs.uk/STU3/StructureDefinition/CareConnect-ITK-Encounter-1"]},"extension":[{"url":"https://fhir.hl7.org.uk/STU3/StructureDefinition/Extension-CareConnect-AdmissionMethod-1","valueCodeableConcept":{"coding":[{"system":"https://fhir.hl7.org.uk/STU3/CodeSystem/CareConnect-AdmissionMethod-1","code":"21","display":"Accident and emergency or dental casualty department of the Health Care Provider"}]}}],"identifier":[{"system":"https://tools.ietf.org/html/rfc4122","value":"24c91f00-dde0-4662-bdce-2e483fe89daa"}],"status":"finished","class":{"system":"http://hl7.org/fhir/v3-ActEncounterCode","code":"IMP","display":"inpatient encounter"},"type":[{"coding":[{"system":"http://snomed.info/sct","code":"163771000000109","display":"Mental health care spell"}]}],"subject":{"reference":"urn:uuid:f919dedc-3c62-462f-a171-8d86c5aaa074"},"participant":[{"type":[{"coding":[{"system":"http://hl7.org/fhir/v3/ParticipationType","code":"DIS","display":"discharger"}]}],"individual":{"reference":"urn:uuid:44c853c7-a22f-49ce-8eb5-27a05c83e6ec"}}],"period":{"start":"2015-03-13T12:00:00+00:00","end":"2015-04-06T13:00:00+00:00"},"reason":[{"coding":[{"system":"http://snomed.info/sct","code":"295126006","display":"Paracetamol overdose of undetermined intent"}]}],"hospitalization":{"admitSource":{"coding":[{"system":"https://fhir.hl7.org.uk/STU3/CodeSystem/CareConnect-SourceOfAdmission-1","code":"51","display":"NHS other Hospital Provider - Ward for general Patients or the younger physically disabled or A and E department"}]},"dischargeDisposition":{"coding":[{"system":"https://fhir.hl7.org.uk/STU3/CodeSystem/CareConnect-DischargeDestination-1","code":"19","display":"Usual place of residence unless listed below, for example, a private dwelling whether owner occupied or owned by Local Authority, housing association or other landlord. This includes wardened accommodation but not residential accommodation where health care is provided. It also includes Patients with no fixed abode."}]}},"location":[{"location":{"reference":"urn:uuid:cd265d1d-2254-4671-8f97-37876c9bac6a"},"period":{"end":"2015-04-06T13:00:00+00:00"}}]}},{"fullUrl":"urn:uuid:972eeaba-9aec-4154-8925-9062cdcd95f0","resource":{"resourceType":"List","id":"972eeaba-9aec-4154-8925-9062cdcd95f0","meta":{"profile":["https://fhir.nhs.uk/STU3/StructureDefinition/CareConnect-ITK-Medication-List-1"]},"identifier":[{"system":"https://tools.ietf.org/html/rfc4122","value":"afb94840-1a20-48b2-8162-6cbdceaa260a"}],"status":"current","mode":"snapshot","code":{"coding":[{"system":"http://snomed.info/sct","code":"1102411000000102","display":"Active medications"}]},"subject":{"reference":"urn:uuid:f919dedc-3c62-462f-a171-8d86c5aaa074"},"encounter":{"reference":"urn:uuid:cf080749-31c9-4ff6-b2d8-a2dd3dce851c"},"source":{"reference":"urn:uuid:04d089aa-be17-42fd-a6fc-961245696263"},"entry":[{"item":{"reference":"urn:uuid:dd596f8a-2c72-44b1-a7aa-c1490fce46d2"}}]}},{"fullUrl":"urn:uuid:dd596f8a-2c72-44b1-a7aa-c1490fce46d2","resource":{"resourceType":"MedicationStatement","id":"dd596f8a-2c72-44b1-a7aa-c1490fce46d2","meta":{"profile":["https://fhir.nhs.uk/STU3/StructureDefinition/CareConnect-ITK-MedicationStatement-1"]},"extension":[{"url":"https://fhir.hl7.org.uk/STU3/StructureDefinition/Extension-CareConnect-MedicationChangeSummary-1","extension":[{"url":"status","valueCode":"Added"}]}],"identifier":[{"system":"https://tools.ietf.org/html/rfc4122","value":"eb515b2d-e87f-41e2-9ff0-cc756d9b12c8"}],"status":"active","medicationReference":{"reference":"urn:uuid:911b8338-79b7-4e9a-9441-49934b3e19e1"},"subject":{"reference":"urn:uuid:f919dedc-3c62-462f-a171-8d86c5aaa074"},"taken":"y","dosage":[{"text":"Take two 100 mg tablets daily","route":{"coding":[{"system":"http://snomed.info/sct","code":"26643006","display":"Oral"}]}}]}},{"fullUrl":"urn:uuid:911b8338-79b7-4e9a-9441-49934b3e19e1","resource":{"resourceType":"Medication","id":"911b8338-79b7-4e9a-9441-49934b3e19e1","meta":{"profile":["https://fhir.nhs.uk/STU3/StructureDefinition/CareConnect-ITK-Medication-1"]},"code":{"coding":[{"system":"http://snomed.info/sct","code":"16066511000001109","display":"Sertraline 100mg tablets (Bristol Laboratories Ltd)"}]},"form":{"coding":[{"system":"http://snomed.info/sct","code":"385055001","display":"Tablet"}]}}},{"fullUrl":"urn:uuid:95e8f8d0-dfc3-4c72-a9dc-7ba1ccd1fab4","resource":{"resourceType":"List","id":"95e8f8d0-dfc3-4c72-a9dc-7ba1ccd1fab4","meta":{"profile":["https://fhir.nhs.uk/STU3/StructureDefinition/CareConnect-ITK-Allergy-List-1"]},"identifier":[{"system":"https://tools.ietf.org/html/rfc4122","value":"6ee0967d-aaa7-411a-9398-518c089ce3a1"}],"status":"current","mode":"snapshot","code":{"coding":[{"system":"http://snomed.info/sct","code":"886921000000105","display":"Allergies and adverse reactions"}]},"subject":{"reference":"urn:uuid:f919dedc-3c62-462f-a171-8d86c5aaa074"},"encounter":{"reference":"urn:uuid:cf080749-31c9-4ff6-b2d8-a2dd3dce851c"},"source":{"reference":"urn:uuid:04d089aa-be17-42fd-a6fc-961245696263"},"entry":[{"item":{"reference":"urn:uuid:f8deaa1e-62ac-41cb-a475-9df3ea737a8e"}}]}},{"fullUrl":"urn:uuid:f8deaa1e-62ac-41cb-a475-9df3ea737a8e","resource":{"resourceType":"AllergyIntolerance","id":"f8deaa1e-62ac-41cb-a475-9df3ea737a8e","meta":{"profile":["https://fhir.nhs.uk/STU3/StructureDefinition/CareConnect-ITK-AllergyIntolerance-1"]},"identifier":[{"system":"https://tools.ietf.org/html/rfc4122","value":"17faf6c5-2897-458d-9893-3428c755fffb"}],"clinicalStatus":"active","verificationStatus":"confirmed","category":["food"],"code":{"coding":[{"system":"http://snomed.info/sct","code":"256349002","display":"Peanut - dietary"}]},"patient":{"reference":"urn:uuid:f919dedc-3c62-462f-a171-8d86c5aaa074"},"assertedDate":"2015-03-13","reaction":[{"manifestation":[{"coding":[{"system":"http://snomed.info/sct","code":"247472004","display":"Weal"}]}]}]}},{"fullUrl":"urn:uuid:3e5cc458-6e99-46c0-b334-6222258aa22a","resource":{"resourceType":"List","id":"3e5cc458-6e99-46c0-b334-6222258aa22a","meta":{"profile":["https://fhir.nhs.uk/STU3/StructureDefinition/CareConnect-ITK-Procedure-List-1"]},"identifier":[{"system":"https://tools.ietf.org/html/rfc4122","value":"043cf11d-fff9-4b49-8621-f2968364c841"}],"status":"current","mode":"snapshot","code":{"coding":[{"system":"http://snomed.info/sct","code":"887171000000109","display":"Procedures"}]},"subject":{"reference":"urn:uuid:f919dedc-3c62-462f-a171-8d86c5aaa074"},"encounter":{"reference":"urn:uuid:cf080749-31c9-4ff6-b2d8-a2dd3dce851c"},"source":{"reference":"urn:uuid:04d089aa-be17-42fd-a6fc-961245696263"},"entry":[{"item":{"reference":"urn:uuid:48facc39-3d1f-4682-8989-71d7e9e10e96"}}]}},{"fullUrl":"urn:uuid:48facc39-3d1f-4682-8989-71d7e9e10e96","resource":{"resourceType":"Procedure","id":"48facc39-3d1f-4682-8989-71d7e9e10e96","meta":{"profile":["https://fhir.nhs.uk/STU3/StructureDefinition/CareConnect-ITK-Procedure-1"]},"identifier":[{"system":"https://tools.ietf.org/html/rfc4122","value":"317d11ba-8e2a-44e9-86ee-9e1c46c852ce"}],"status":"completed","code":{"coding":[{"system":"http://snomed.info/sct","code":"493121000000105","display":"Assessment using health of the nation outcome scale"}]},"subject":{"reference":"urn:uuid:f919dedc-3c62-462f-a171-8d86c5aaa074"},"context":{"reference":"urn:uuid:cf080749-31c9-4ff6-b2d8-a2dd3dce851c"}}},{"fullUrl":"urn:uuid:e2b1c9ff-4a34-45db-af57-5f6d72f8d1b9","resource":{"resourceType":"List","id":"e2b1c9ff-4a34-45db-af57-5f6d72f8d1b9","meta":{"profile":["https://fhir.nhs.uk/STU3/StructureDefinition/CareConnect-ITK-Condition-List-1"]},"identifier":[{"system":"https://tools.ietf.org/html/rfc4122","value":"73f7933c-115a-4f26-8ce4-e847f03803b5"}],"status":"current","mode":"snapshot","code":{"coding":[{"system":"http://snomed.info/sct","code":"887161000000102","display":"Diagnoses"}]},"subject":{"reference":"urn:uuid:f919dedc-3c62-462f-a171-8d86c5aaa074"},"encounter":{"reference":"urn:uuid:cf080749-31c9-4ff6-b2d8-a2dd3dce851c"},"source":{"reference":"urn:uuid:04d089aa-be17-42fd-a6fc-961245696263"},"entry":[{"item":{"reference":"urn:uuid:11ae3617-f898-4503-a895-54eed614a574"}}]}},{"fullUrl":"urn:uuid:11ae3617-f898-4503-a895-54eed614a574","resource":{"resourceType":"Condition","id":"11ae3617-f898-4503-a895-54eed614a574","meta":{"profile":["https://fhir.nhs.uk/STU3/StructureDefinition/CareConnect-ITK-Condition-1"]},"identifier":[{"system":"https://tools.ietf.org/html/rfc4122","value":"c4b2d64e-23f3-4055-8299-141aacf9c16c"}],"clinicalStatus":"active","code":{"coding":[{"system":"http://snomed.info/sct","code":"397701000000102","display":"[X]Severe depressive episode without psychotic symptoms"}]},"subject":{"reference":"urn:uuid:f919dedc-3c62-462f-a171-8d86c5aaa074"},"context":{"reference":"urn:uuid:cf080749-31c9-4ff6-b2d8-a2dd3dce851c"}}},{"fullUrl":"urn:uuid:f919dedc-3c62-462f-a171-8d86c5aaa074","resource":{"resourceType":"Patient","id":"f919dedc-3c62-462f-a171-8d86c5aaa074","meta":{"profile":["https://fhir.hl7.org.uk/STU3/StructureDefinition/CareConnect-Patient-1"]},"identifier":[{"extension":[{"url":"https://fhir.hl7.org.uk/STU3/StructureDefinition/Extension-CareConnect-NHSNumberVerificationStatus-1","valueCodeableConcept":{"coding":[{"system":"https://fhir.hl7.org.uk/STU3/CodeSystem/CareConnect-NHSNumberVerificationStatus-1","code":"01","display":"Number present and verified"}]}}],"system":"https://fhir.nhs.uk/Id/nhs-number","value":"1234567890"}],"name":[{"use":"official","family":"Burrows","given":["Jon"],"prefix":["Mr"]}],"gender":"male","birthDate":"1970-09-10","address":[{"line":["22, Brown Street, Overtown"],"city":"Leeds","postalCode":"LS22 2JK"}]}},{"fullUrl":"urn:uuid:5e414a77-d394-4248-a631-00e45ddb64a0","resource":{"resourceType":"Practitioner","id":"5e414a77-d394-4248-a631-00e45ddb64a0","meta":{"profile":["https://fhir.hl7.org.uk/STU3/StructureDefinition/CareConnect-Practitioner-1"]},"identifier":[{"system":"https://fhir.nhs.uk/Id/local-practitioner-identifier","value":"GP12345600"}],"name":[{"family":"Lozo","given":["James"],"prefix":["Dr"]}]}},{"fullUrl":"urn:uuid:04d089aa-be17-42fd-a6fc-961245696263","resource":{"resourceType":"Practitioner","id":"04d089aa-be17-42fd-a6fc-961245696263","meta":{"profile":["https://fhir.hl7.org.uk/STU3/StructureDefinition/CareConnect-Practitioner-1"]},"name":[{"family":"Beck","given":["Daniel"],"prefix":["Dr"]}]}},{"fullUrl":"urn:uuid:44c853c7-a22f-49ce-8eb5-27a05c83e6ec","resource":{"resourceType":"Practitioner","id":"44c853c7-a22f-49ce-8eb5-27a05c83e6ec","meta":{"profile":["https://fhir.hl7.org.uk/STU3/StructureDefinition/CareConnect-Practitioner-1"]},"identifier":[{"system":"https://fhir.nhs.uk/Id/local-practitioner-identifier","value":"9222477"}],"name":[{"family":"Scott","given":["Mike"],"prefix":["Dr"]}],"telecom":[{"system":"phone","value":"0113 111222","use":"work"}]}},{"fullUrl":"urn:uuid:a74e1942-8ff8-4c4a-9edb-7b5e4e2f198c","resource":{"resourceType":"Practitioner","id":"a74e1942-8ff8-4c4a-9edb-7b5e4e2f198c","meta":{"profile":["https://fhir.hl7.org.uk/STU3/StructureDefinition/CareConnect-Practitioner-1"]},"identifier":[{"system":"https://fhir.nhs.uk/Id/sds-user-id","value":"033345750518"}],"name":[{"family":"Gillingham","given":["Gay"],"prefix":["Mrs"]}]}},{"fullUrl":"urn:uuid:001c858c-3e3d-4b58-be94-0f46c79d8bae","resource":{"resourceType":"PractitionerRole","id":"001c858c-3e3d-4b58-be94-0f46c79d8bae","meta":{"profile":["https://fhir.hl7.org.uk/STU3/StructureDefinition/CareConnect-PractitionerRole-1"]},"practitioner":{"reference":"urn:uuid:5e414a77-d394-4248-a631-00e45ddb64a0"},"organization":{"reference":"urn:uuid:f9f24f89-646b-4a19-a6b1-cabfa3b612e1"},"code":[{"coding":[{"system":"https://fhir.hl7.org.uk/STU3/CodeSystem/CareConnect-SDSJobRoleName-1","code":"R0260","display":"General Medical Practitioner"}]}]}},{"fullUrl":"urn:uuid:d53edede-fcb0-4bdd-9724-e4e5745f1b63","resource":{"resourceType":"PractitionerRole","id":"d53edede-fcb0-4bdd-9724-e4e5745f1b63","meta":{"profile":["https://fhir.hl7.org.uk/STU3/StructureDefinition/CareConnect-PractitionerRole-1"]},"practitioner":{"reference":"urn:uuid:04d089aa-be17-42fd-a6fc-961245696263"},"organization":{"reference":"urn:uuid:6de0a05a-d4b2-4f67-b0d4-80cc2a670f90"},"code":[{"coding":[{"system":"https://fhir.hl7.org.uk/STU3/CodeSystem/CareConnect-SDSJobRoleName-1","code":"R0050","display":"Consultant"}]}]}},{"fullUrl":"urn:uuid:18e9c262-e21a-4b32-bf59-eae2e549f5a4","resource":{"resourceType":"PractitionerRole","id":"18e9c262-e21a-4b32-bf59-eae2e549f5a4","meta":{"profile":["https://fhir.hl7.org.uk/STU3/StructureDefinition/CareConnect-PractitionerRole-1"]},"practitioner":{"reference":"urn:uuid:44c853c7-a22f-49ce-8eb5-27a05c83e6ec"},"organization":{"reference":"urn:uuid:6de0a05a-d4b2-4f67-b0d4-80cc2a670f90"},"code":[{"coding":[{"system":"https://fhir.hl7.org.uk/STU3/CodeSystem/CareConnect-SDSJobRoleName-1","code":"R0050","display":"Consultant"}]}],"specialty":[{"coding":[{"system":"http://snomed.info/sct","code":"408467006","display":"Adult mental illness - speciality"}]}]}},{"fullUrl":"urn:uuid:95fa0336-21f0-4cf1-b453-9117efbfbaa4","resource":{"resourceType":"PractitionerRole","id":"95fa0336-21f0-4cf1-b453-9117efbfbaa4","meta":{"profile":["https://fhir.hl7.org.uk/STU3/StructureDefinition/CareConnect-PractitionerRole-1"]},"practitioner":{"reference":"urn:uuid:a74e1942-8ff8-4c4a-9edb-7b5e4e2f198c"},"organization":{"reference":"urn:uuid:6de0a05a-d4b2-4f67-b0d4-80cc2a670f90"},"code":[{"coding":[{"system":"https://fhir.hl7.org.uk/STU3/CodeSystem/CareConnect-SDSJobRoleName-1","code":"R0050","display":"Consultant"}],"text":"Community Team Member"}]}},{"fullUrl":"urn:uuid:f9f24f89-646b-4a19-a6b1-cabfa3b612e1","resource":{"resourceType":"Organization","id":"f9f24f89-646b-4a19-a6b1-cabfa3b612e1","meta":{"profile":["https://fhir.hl7.org.uk/STU3/StructureDefinition/CareConnect-Organization-1"]},"identifier":[{"system":"https://fhir.nhs.uk/Id/ods-organization-code","value":"GP123456"}],"name":"MGP Medical Centre","address":[{"line":["1 MGP House, Overtown"],"city":"Leeds","postalCode":"LS21 7PA"}]}},{"fullUrl":"urn:uuid:6de0a05a-d4b2-4f67-b0d4-80cc2a670f90","resource":{"resourceType":"Organization","id":"6de0a05a-d4b2-4f67-b0d4-80cc2a670f90","meta":{"profile":["https://fhir.hl7.org.uk/STU3/StructureDefinition/CareConnect-Organization-1"]},"identifier":[{"system":"https://fhir.nhs.uk/Id/ods-organization-code","value":"RGDA"}],"name":"Leeds Mental Health Trust","address":[{"line":["Twenty One Fifty, Thorpe Park"],"city":"Leeds","postalCode":"LS15 8ZB"}]}},{"fullUrl":"urn:uuid:9bbd320d-4cf4-48c5-a254-959703db5936","resource":{"resourceType":"Organization","id":"9bbd320d-4cf4-48c5-a254-959703db5936","meta":{"profile":["https://fhir.hl7.org.uk/STU3/StructureDefinition/CareConnect-Organization-1"]},"identifier":[{"system":"https://fhir.nhs.uk/Id/ods-organization-code","value":"RR8A2"}],"name":"Accident & Emergency SJUH"}},{"fullUrl":"urn:uuid:cd265d1d-2254-4671-8f97-37876c9bac6a","resource":{"resourceType":"Location","id":"cd265d1d-2254-4671-8f97-37876c9bac6a","meta":{"profile":["https://fhir.hl7.org.uk/STU3/StructureDefinition/CareConnect-Location-1"]},"identifier":[{"system":"https://fhir.nhs.uk/Id/local-location-identifier","value":"RR8ALD"}],"name":"Alder Ward","managingOrganization":{"reference":"urn:uuid:6de0a05a-d4b2-4f67-b0d4-80cc2a670f90"}}}]}