{"resourceType":"Bundle","id":"e9ab79f4-ca79-440d-a125-80c7a8ecb460","meta":{"lastUpdated":"2017-05-19T19:00:00+00:00","profile":["https://fhir.nhs.uk/STU3/StructureDefinition/ITK-Document-Bundle-1"]},"identifier":{"system":"https://tools.ietf.org/html/rfc4122","value":"f18f5330-a1e0-4f34-9e7d-3fcf6e3f0b8b"},"type":"document","entry":[{"fullUrl":"urn:uuid:db3a110c-3a3d-457d-913b-1473f3be2e32","resource":{"resourceType":"Composition","id":"db3a110c-3a3d-457d-913b-1473f3be2e32","meta":{"profile":["https://fhir.nhs.uk/STU3/StructureDefinition/CareConnect-ITK-OPL-Composition-1"]},"extension":[{"url":"https://fhir.hl7.org.uk/STU3/StructureDefinition/Extension-CareConnect-CareSettingType-1","valueCodeableConcept":{"coding":[{"system":"http://snomed.info/sct","code":"310160007","display":"Ophthalmology service"}]}}],"identifier":{"system":"https://tools.ietf.org/html/rfc4122","value":"1de8bd94-a4ff-4d69-a504-b04dd1e526ea"},"status":"final","type":{"coding":[{"system":"http://snomed.info/sct","code":"823681000000100","display":"Outpatient letter"}]},"subject":{"reference":"urn:uuid:dc3491e5-a4c0-4d7e-b879-7bd86133e61f"},"encounter":{"reference":"urn:uuid:230a0ced-90c9-4171-93f4-22f9500acb65"},"date":"2017-05-19T16:00:00+00:00","author":[{"reference":"urn:uuid:88f1ca61-0200-4943-a066-baf9a1570029"}],"title":"Ophthalmology Service Outpatient Letter","custodian":{"reference":"urn:uuid:0b589972-4d02-4636-a090-964fe1952aa9"},"section":[{"title":"Allergies and adverse reactions","code":{"coding":[{"system":"http://snomed.info/sct","code":"886921000000105","display":"Allergies and adverse reactions"}]},"text":{"status":"generated","div":"<div xmlns=\"http://www.w3.org/1999/xhtml\"><table width=\"100%\"><tbody><tr><th>Causative agent</th><td>No known allergy</td></tr></tbody></table></div>"},"entry":[{"reference":"urn:uuid:a706d098-55f9-4fb1-ba0a-9aa6726afb97"}]},{"title":"Attendance details","code":{"coding":[{"system":"http://snomed.info/sct","code":"1077881000000105","display":"Attendance details"}]},"text":{"status":"additional","div":"<div xmlns=\"http://www.w3.org/1999/xhtml\"><table width=\"100%\"><tbody><tr><td colspan=\"2\" style=\"width:100%\">Dear Dr. O'Reilly,<br />I had the pleasure of meeting Mr. Perrin in the orthoptic outpatient clinic today, referred by Michael McMonagle, Occupational Therapist, Head Injury Team, St Crispin's Hospital, Donaldstown, DO5 7TP</td></tr><tr><th>Date and time of contact</th><td>19-May-2017 10:00</td></tr><tr><th>Contact type</th><td>First attendance face to face</td></tr><tr><th>Consultation method</th><td>Face-to-face</td></tr><tr><th>Responsible healthcare professional</th><td>Rupert Rigsby (Orthoptist)</td></tr><tr><th>Specialty</th><td>Ophthalmology</td></tr><tr><th>Service</th><td>Ophthalmology</td></tr><tr><th>Seen by</th><td><p>Prefix: Mr</p><p>Given Name: Rupert</p><p>Family Name: Rigsby</p><p>Role: Orthoptist</p><p>Tel: 01234 569879 (Work)</p></td></tr><tr><th>Outcome of outpatient attendance</th><td>Discharged from Consultant's care (last attendance)</td></tr></tbody></table></div>"},"entry":[{"reference":"urn:uuid:230a0ced-90c9-4171-93f4-22f9500acb65"}]},{"title":"Clinical summary","code":{"coding":[{"system":"http://snomed.info/sct","code":"887181000000106","display":"Clinical summary"}]},"text":{"status":"additional","div":"<div xmlns=\"http://www.w3.org/1999/xhtml\"><table width=\"100%\"><tbody><tr><th>Clinical summary</th><td>Referred from the head injury team as patient experiencing diplopia. Diagnosed with a right IV nerve palsy. Fitted a prism on patients glasses to relieve diplopia.</td></tr></tbody></table></div>"}},{"title":"Diagnoses","code":{"coding":[{"system":"http://snomed.info/sct","code":"887161000000102","display":"Diagnoses"}]},"text":{"status":"generated","div":"<div xmlns=\"http://www.w3.org/1999/xhtml\"><table width=\"100%\"><tbody><tr><th>Diagnosis name</th><td>Fourth nerve palsy</td></tr></tbody></table></div>"},"entry":[{"reference":"urn:uuid:ed25323b-1d74-47da-991e-e821c6b2b269"}]},{"title":"Distribution list","code":{"coding":[{"system":"http://snomed.info/sct","code":"887261000000109","display":"Distribution list"}]},"text":{"status":"generated","div":"<div xmlns=\"http://www.w3.org/1999/xhtml\"><table width=\"100%\"><tbody><tr><th>Name</th><td>Dr C O'Reilly</td><td><p>Prefix: Dr</p><p>Given Name: C</p><p>Family Name: O'Reilly</p></td></tr><tr><th>Role</th><td>General Medical Practitioner</td></tr><tr><th>Organisation name</th><td>Canvas Health Centre</td></tr></tbody></table><table width=\"100%\"><tbody><tr><th>Name</th><td><p>Prefix: Mr</p><p>Given Name: Michael</p><p>Family Name: McMonagle</p></td></tr><tr><th>Role</th><td>Occupational Therapist</td></tr><tr><th>Organisation</th><td><p>Name: Head Injury Team</p></td></tr></tbody></table><table width=\"100%\"><tbody><tr><th>Name</th><td><p>Prefix: Mr</p><p>Given Name: Reginald</p><p>Family Name: Perrin</p></td></tr></tbody></table></div>"},"entry":[{"reference":"urn:uuid:d4d154f9-7bbc-4760-8cac-00f7974f5e6c"},{"reference":"urn:uuid:23a936ae-65bb-48cf-9881-86e4b952289f"},{"reference":"urn:uuid:dc3491e5-a4c0-4d7e-b879-7bd86133e61f"}]},{"title":"Examination finding","code":{"coding":[{"system":"http://snomed.info/sct","code":"715851000000102","display":"Examination findings"}]},"text":{"status":"additional","div":"<div xmlns=\"http://www.w3.org/1999/xhtml\"><table width=\"100%\"><tbody><tr><th>Examination</th><td>Ocular motility testing</td></tr><tr><th>Examination findings</th><td>Right hypertropia</td></tr></tbody></table></div>"}},{"title":"GP practice","code":{"coding":[{"system":"http://snomed.info/sct","code":"886711000000101","display":"GP practice"}]},"text":{"status":"additional","div":"<div xmlns=\"http://www.w3.org/1999/xhtml\"><table width=\"100%\"><tbody><tr><th>GP name</th><td><p>Prefix: Dr</p><p>Given Name: C</p><p>Family Name: O'Reilly</p></td></tr><tr><th>GP practice details</th><td><p>Name: Canvas Health Centre</p><p>Address:</p><p>Address Line: 27, Acacia Road</p><p>Post Code: BM9 6PM</p></td></tr></tbody></table></div>"},"entry":[{"reference":"urn:uuid:3eb488e4-f1b1-433d-91ba-e9fe60550211"}]},{"title":"History","code":{"coding":[{"system":"http://snomed.info/sct","code":"717121000000105","display":"History"}]},"text":{"status":"generated","div":"<div xmlns=\"http://www.w3.org/1999/xhtml\"><table width=\"100%\"><tbody><tr><th>Presenting complaints or issue</th><td>Diplopia</td></tr><tr><th>Presenting complaints or issue</th><td>Abnormal ocular motility</td></tr></tbody></table></div>"},"entry":[{"reference":"urn:uuid:ed25323b-1d74-47da-991e-e821c6b2b269"}]},{"title":"Patient demographics","code":{"coding":[{"system":"http://snomed.info/sct","code":"886731000000109","display":"Patient demographics"}]},"text":{"status":"extensions","div":"<div xmlns=\"http://www.w3.org/1999/xhtml\"><table width=\"100%\"><tbody><tr><th>Patient name</th><td><p>Prefix: Mr</p><p>Given Name: Reginald</p><p>Family Name: Perrin</p></td></tr><tr><th>Date of birth</th><td>1 April 1983</td></tr><tr><th>Gender</th><td>Male</td></tr><tr><th>NHS number</th><td>9823543217</td></tr><tr><th>Other identifier</th><td>TL23764</td></tr><tr><th>Patient address</th><td><p>Address Line: 5, Acacia Road</p><p>Post Code: BM9 6PG</p></td></tr><tr><th>Patient email address</th><td>reginald@perrin.net</td></tr><tr><th>Patient telephone number</th><td>Mobile: 077 6677 7766</td></tr></tbody></table></div>"},"entry":[{"reference":"urn:uuid:dc3491e5-a4c0-4d7e-b879-7bd86133e61f"}]},{"title":"Person completing record","code":{"coding":[{"system":"http://snomed.info/sct","code":"887231000000104","display":"Person completing record"}]},"text":{"status":"additional","div":"<div xmlns=\"http://www.w3.org/1999/xhtml\"><table width=\"100%\"><tbody><tr><th>Name</th><td><p>Prefix: Mr</p><p>Given Name: Rupert</p><p>Family Name: Rigsby</p></td><td>Rupert Rigsby</td></tr><tr><th>Role</th><td>Orthoptist</td></tr><tr><th>Professional identifier</th><td>HCPC: OR00001</td></tr><tr><th>Date and time completed</th><td>19-May-2017 16:00</td></tr><tr><th>Contact details</th><td>Tel: 01234 569879 (Work)</td></tr></tbody></table></div>"},"entry":[{"reference":"urn:uuid:88f1ca61-0200-4943-a066-baf9a1570029"}]},{"title":"Plan and requested actions","code":{"coding":[{"system":"http://snomed.info/sct","code":"887201000000105","display":"Plan and requested actions"}]},"text":{"status":"additional","div":"<div xmlns=\"http://www.w3.org/1999/xhtml\"><table width=\"100%\"><tbody><tr><th>Actions for healthcare professionals</th><td>Referred to ophthalmologist by Rupert Rigsby on 19/05/17</td></tr><tr><th>Actions for patient or their carer</th><td>Patient has been advised to inform the DVLA regarding the diplopia and fresnel prism.</td></tr></tbody></table></div>"}},{"title":"Procedures","code":{"coding":[{"system":"http://snomed.info/sct","code":"887171000000109","display":"Procedures"}]},"text":{"status":"additional","div":"<div xmlns=\"http://www.w3.org/1999/xhtml\"><table width=\"100%\"><tbody><tr><th>Procedure name</th><td>Orthoptic treatment -prism in spectacles</td></tr><tr><th>Comment</th><td>Fitted a prism on patient’s glasses (right side)</td></tr></tbody></table></div>"},"entry":[{"reference":"urn:uuid:852358ef-0163-4eee-8835-029c25f004a3"}]},{"title":"Referrer details","code":{"coding":[{"system":"http://snomed.info/sct","code":"1052891000000108","display":"Referrer details"}]},"text":{"status":"generated","div":"<div xmlns=\"http://www.w3.org/1999/xhtml\"><table width=\"100%\"><tbody><tr><th>Referrer details</th><td><p>Name:</p><p>Prefix: Mr</p><p>Given Name: Michael</p><p>Family Name: McMonagle</p><p>Role: Occupational Therapist</p><p>Organisation Name: Head Injury Team</p><p>Address Line: St Crispin's Hospital</p><p>City: Donaldstown</p><p>Post Code: DO5 7TP</p></td></tr></tbody></table></div>"},"entry":[{"reference":"urn:uuid:d4d154f9-7bbc-4760-8cac-00f7974f5e6c"},{"reference":"urn:uuid:784e2b8a-8daa-42f3-8e65-ffe84aee00a5"}]}]}},{"fullUrl":"urn:uuid:230a0ced-90c9-4171-93f4-22f9500acb65","resource":{"resourceType":"Encounter","id":"230a0ced-90c9-4171-93f4-22f9500acb65","meta":{"profile":["https://fhir.nhs.uk/STU3/StructureDefinition/CareConnect-ITK-Encounter-1"]},"extension":[{"url":"https://fhir.hl7.org.uk/STU3/StructureDefinition/Extension-CareConnect-OutcomeOfAttendance-1","valueCodeableConcept":{"coding":[{"system":"https://fhir.hl7.org.uk/STU3/CodeSystem/CareConnect-OutcomeOfAttendance-1","code":"1","display":"Discharged from Consultant's care (last attendance)"}]}}],"identifier":[{"system":"https://tools.ietf.org/html/rfc4122","value":"c6fa7540-9044-45a5-a91f-9b41cbb2db5b"}],"status":"finished","class":{"system":"http://hl7.org/fhir/v3-ActEncounterCode","code":"AMB","display":"ambulatory"},"type":[{"coding":[{"system":"https://www.datadictionary.nhs.uk","code":"1","display":"First attendance face to face"}]}],"subject":{"reference":"urn:uuid:dc3491e5-a4c0-4d7e-b879-7bd86133e61f"},"participant":[{"type":[{"coding":[{"system":"http://hl7.org/fhir/v3/ParticipationType","code":"ATND","display":"attender"}]}],"individual":{"reference":"urn:uuid:88f1ca61-0200-4943-a066-baf9a1570029"}}],"period":{"start":"2017-05-19T10:00:00+00:00","end":"2017-05-19T11:00:00+00:00"}}},{"fullUrl":"urn:uuid:a706d098-55f9-4fb1-ba0a-9aa6726afb97","resource":{"resourceType":"List","id":"a706d098-55f9-4fb1-ba0a-9aa6726afb97","meta":{"profile":["https://fhir.nhs.uk/STU3/StructureDefinition/CareConnect-ITK-Allergy-List-1"]},"identifier":[{"system":"https://tools.ietf.org/html/rfc4122","value":"53ca67c5-b6c2-4771-b87f-c9e628790366"}],"status":"current","mode":"snapshot","code":{"coding":[{"system":"http://snomed.info/sct","code":"886921000000105","display":"Allergies and adverse reactions"}]},"subject":{"reference":"urn:uuid:dc3491e5-a4c0-4d7e-b879-7bd86133e61f"},"encounter":{"reference":"urn:uuid:230a0ced-90c9-4171-93f4-22f9500acb65"},"source":{"reference":"urn:uuid:88f1ca61-0200-4943-a066-baf9a1570029"},"entry":[{"item":{"reference":"urn:uuid:fd217de4-fb9d-485c-abfb-4db6c307fae3"}}]}},{"fullUrl":"urn:uuid:fd217de4-fb9d-485c-abfb-4db6c307fae3","resource":{"resourceType":"AllergyIntolerance","id":"fd217de4-fb9d-485c-abfb-4db6c307fae3","meta":{"profile":["https://fhir.nhs.uk/STU3/StructureDefinition/CareConnect-ITK-AllergyIntolerance-1"]},"identifier":[{"system":"https://tools.ietf.org/html/rfc4122","value":"0f8d2f4d-5598-4f69-b734-1d62a2bba66c"}],"clinicalStatus":"active","verificationStatus":"confirmed","code":{"coding":[{"system":"http://snomed.info/sct","code":"716186003","display":"No known allergy"}]},"patient":{"reference":"urn:uuid:dc3491e5-a4c0-4d7e-b879-7bd86133e61f"}}},{"fullUrl":"urn:uuid:ed25323b-1d74-47da-991e-e821c6b2b269","resource":{"resourceType":"List","id":"ed25323b-1d74-47da-991e-e821c6b2b269","meta":{"profile":["https://fhir.nhs.uk/STU3/StructureDefinition/CareConnect-ITK-Condition-List-1"]},"identifier":[{"system":"https://tools.ietf.org/html/rfc4122","value":"0ab6e249-2677-46e2-9273-30a34a71b772"}],"status":"current","mode":"snapshot","code":{"coding":[{"system":"http://snomed.info/sct","code":"887161000000102","display":"Diagnoses"}]},"subject":{"reference":"urn:uuid:dc3491e5-a4c0-4d7e-b879-7bd86133e61f"},"encounter":{"reference":"urn:uuid:230a0ced-90c9-4171-93f4-22f9500acb65"},"source":{"reference":"urn:uuid:88f1ca61-0200-4943-a066-baf9a1570029"},"entry":[{"item":{"reference":"urn:uuid:b45f2e3c-0aa9-4a14-828e-1eba1b0756a7"}},{"item":{"reference":"urn:uuid:b26285f5-aea0-4b1f-b0eb-bfcaa6a5d15c"}},{"item":{"reference":"urn:uuid:07b3cbda-5d14-4fed-b84a-91d77ab500c2"}}]}},{"fullUrl":"urn:uuid:b45f2e3c-0aa9-4a14-828e-1eba1b0756a7","resource":{"resourceType":"Condition","id":"b45f2e3c-0aa9-4a14-828e-1eba1b0756a7","meta":{"profile":["https://fhir.nhs.uk/STU3/StructureDefinition/CareConnect-ITK-Condition-1"]},"identifier":[{"system":"https://tools.ietf.org/html/rfc4122","value":"bc8e4fc0-18dc-46b5-9f60-30857b24e42b"}],"clinicalStatus":"active","category":[{"coding":[{"system":"https://fhir.hl7.org.uk/STU3/CodeSystem/CareConnect-ConditionCategory-1","code":"encounter-diagnosis","display":"Encounter Diagnosis"}]}],"code":{"coding":[{"system":"http://snomed.info/sct","code":"20610004","display":"Fourth nerve palsy"}]},"subject":{"reference":"urn:uuid:dc3491e5-a4c0-4d7e-b879-7bd86133e61f"},"context":{"reference":"urn:uuid:230a0ced-90c9-4171-93f4-22f9500acb65"}}},{"fullUrl":"urn:uuid:b26285f5-aea0-4b1f-b0eb-bfcaa6a5d15c","resource":{"resourceType":"Condition","id":"b26285f5-aea0-4b1f-b0eb-bfcaa6a5d15c","meta":{"profile":["https://fhir.nhs.uk/STU3/StructureDefinition/CareConnect-ITK-Condition-1"]},"identifier":[{"system":"https://tools.ietf.org/html/rfc4122","value":"455a8faf-ff7f-4b19-88a2-f9907fd34933"}],"clinicalStatus":"active","category":[{"coding":[{"system":"https://fhir.hl7.org.uk/STU3/CodeSystem/CareConnect-ConditionCategory-1","code":"presenting-complaint","display":"Presenting Complaint"}]}],"code":{"coding":[{"system":"http://snomed.info/sct","code":"103252009","display":"Abnormal ocular motility"}]},"subject":{"reference":"urn:uuid:dc3491e5-a4c0-4d7e-b879-7bd86133e61f"},"context":{"reference":"urn:uuid:230a0ced-90c9-4171-93f4-22f9500acb65"}}},{"fullUrl":"urn:uuid:07b3cbda-5d14-4fed-b84a-91d77ab500c2","resource":{"resourceType":"Condition","id":"07b3cbda-5d14-4fed-b84a-91d77ab500c2","meta":{"profile":["https://fhir.nhs.uk/STU3/StructureDefinition/CareConnect-ITK-Condition-1"]},"identifier":[{"system":"https://tools.ietf.org/html/rfc4122","value":"f7d300b6-fb5a-4b99-979f-80af5a94885d"}],"clinicalStatus":"active","category":[{"coding":[{"system":"https://fhir.hl7.org.uk/STU3/CodeSystem/CareConnect-ConditionCategory-1","code":"presenting-complaint","display":"Presenting Complaint"}]}],"code":{"coding":[{"system":"http://snomed.info/sct","code":"24982008","display":"Diplopia"}]},"subject":{"reference":"urn:uuid:dc3491e5-a4c0-4d7e-b879-7bd86133e61f"},"context":{"reference":"urn:uuid:230a0ced-90c9-4171-93f4-22f9500acb65"}}},{"fullUrl":"urn:uuid:852358ef-0163-4eee-8835-029c25f004a3","resource":{"resourceType":"List","id":"852358ef-0163-4eee-8835-029c25f004a3","meta":{"profile":["https://fhir.nhs.uk/STU3/StructureDefinition/CareConnect-ITK-Procedure-List-1"]},"identifier":[{"system":"https://tools.ietf.org/html/rfc4122","value":"68dc133c-368d-40ff-b7f9-d361026a22ec"}],"status":"current","mode":"snapshot","code":{"coding":[{"system":"http://snomed.info/sct","code":"887171000000109","display":"Procedures"}]},"subject":{"reference":"urn:uuid:dc3491e5-a4c0-4d7e-b879-7bd86133e61f"},"encounter":{"reference":"urn:uuid:230a0ced-90c9-4171-93f4-22f9500acb65"},"source":{"reference":"urn:uuid:88f1ca61-0200-4943-a066-baf9a1570029"},"entry":[{"item":{"reference":"urn:uuid:4303abe7-0966-49b1-a89d-4d607189124f"}}]}},{"fullUrl":"urn:uuid:4303abe7-0966-49b1-a89d-4d607189124f","resource":{"resourceType":"Procedure","id":"4303abe7-0966-49b1-a89d-4d607189124f","meta":{"profile":["https://fhir.nhs.uk/STU3/StructureDefinition/CareConnect-ITK-Procedure-1"]},"identifier":[{"system":"https://tools.ietf.org/html/rfc4122","value":"a82c7d64-ff0e-4c4f-a7c5-7ede593bd8fb"}],"status":"completed","code":{"coding":[{"system":"http://snomed.info/sct","code":"419154004","display":"Orthoptic treatment -prism in spectacles"}]},"subject":{"reference":"urn:uuid:dc3491e5-a4c0-4d7e-b879-7bd86133e61f"}}},{"fullUrl":"urn:uuid:dc3491e5-a4c0-4d7e-b879-7bd86133e61f","resource":{"resourceType":"Patient","id":"dc3491e5-a4c0-4d7e-b879-7bd86133e61f","meta":{"profile":["https://fhir.hl7.org.uk/STU3/StructureDefinition/CareConnect-Patient-1"]},"identifier":[{"extension":[{"url":"https://fhir.hl7.org.uk/STU3/StructureDefinition/Extension-CareConnect-NHSNumberVerificationStatus-1","valueCodeableConcept":{"coding":[{"system":"https://fhir.hl7.org.uk/STU3/CodeSystem/CareConnect-NHSNumberVerificationStatus-1","code":"01","display":"Number present and verified"}]}}],"system":"https://fhir.nhs.uk/Id/nhs-number","value":"9823543217"},{"system":"https://fhir.nhs.uk/Id/local-patient-identifier","value":"TL23764"}],"name":[{"use":"official","family":"Perrin","given":["Reginald"],"prefix":["Mr"]}],"telecom":[{"system":"phone","value":"077 6677 7766","use":"mobile"},{"system":"email","value":"reginald@perrin.net"}],"gender":"male","birthDate":"1983-04-01","address":[{"line":["5 Acacia Road"],"postalCode":"BM9 6PG"}]}},{"fullUrl":"urn:uuid:88f1ca61-0200-4943-a066-baf9a1570029","resource":{"resourceType":"Practitioner","id":"88f1ca61-0200-4943-a066-baf9a1570029","meta":{"profile":["https://fhir.hl7.org.uk/STU3/StructureDefinition/CareConnect-Practitioner-1"]},"identifier":[{"system":"https://fhir.hl7.org.uk/Id/hcpc-number","value":"OR00001"}],"name":[{"family":"Rigsby","given":["Rupert"],"prefix":["Mr"]}],"telecom":[{"system":"phone","value":"01234 569879","use":"work"}]}},{"fullUrl":"urn:uuid:23a936ae-65bb-48cf-9881-86e4b952289f","resource":{"resourceType":"Practitioner","id":"23a936ae-65bb-48cf-9881-86e4b952289f","meta":{"profile":["https://fhir.hl7.org.uk/STU3/StructureDefinition/CareConnect-Practitioner-1"]},"identifier":[{"system":"https://fhir.nhs.uk/Id/local-practitioner-identifier","value":"8122472"}],"name":[{"family":"O'Reilly","given":["C"],"prefix":["Dr"]}]}},{"fullUrl":"urn:uuid:fcc956a8-a96f-4bd5-b0b2-196bbb1f0f66","resource":{"resourceType":"PractitionerRole","id":"fcc956a8-a96f-4bd5-b0b2-196bbb1f0f66","meta":{"profile":["https://fhir.hl7.org.uk/STU3/StructureDefinition/CareConnect-PractitionerRole-1"]},"practitioner":{"reference":"urn:uuid:23a936ae-65bb-48cf-9881-86e4b952289f"},"organization":{"reference":"urn:uuid:3eb488e4-f1b1-433d-91ba-e9fe60550211"},"code":[{"coding":[{"system":"https://fhir.hl7.org.uk/STU3/CodeSystem/CareConnect-SDSJobRoleName-1","code":"R0260","display":"General Medical Practitioner"}]}]}},{"fullUrl":"urn:uuid:d4d154f9-7bbc-4760-8cac-00f7974f5e6c","resource":{"resourceType":"Practitioner","id":"d4d154f9-7bbc-4760-8cac-00f7974f5e6c","meta":{"profile":["https://fhir.hl7.org.uk/STU3/StructureDefinition/CareConnect-Practitioner-1"]},"identifier":[{"system":"https://fhir.nhs.uk/Id/sds-user-id","value":"033355750510"}],"name":[{"family":"McMonagle","given":["Michael"],"prefix":["Mr"]}]}},{"fullUrl":"urn:uuid:2e91ae72-2e6a-46de-86c4-95d9a3025f5f","resource":{"resourceType":"PractitionerRole","id":"2e91ae72-2e6a-46de-86c4-95d9a3025f5f","meta":{"profile":["https://fhir.hl7.org.uk/STU3/StructureDefinition/CareConnect-PractitionerRole-1"]},"practitioner":{"reference":"urn:uuid:d4d154f9-7bbc-4760-8cac-00f7974f5e6c"},"organization":{"reference":"urn:uuid:784e2b8a-8daa-42f3-8e65-ffe84aee00a5"},"code":[{"coding":[{"system":"https://fhir.hl7.org.uk/STU3/CodeSystem/CareConnect-SDSJobRoleName-1","code":"R0950","display":"Occupational Therapist"}]}]}},{"fullUrl":"urn:uuid:cd734ce9-468d-4a36-8dac-e453aa4747e0","resource":{"resourceType":"PractitionerRole","id":"cd734ce9-468d-4a36-8dac-e453aa4747e0","meta":{"profile":["https://fhir.hl7.org.uk/STU3/StructureDefinition/CareConnect-PractitionerRole-1"]},"practitioner":{"reference":"urn:uuid:88f1ca61-0200-4943-a066-baf9a1570029"},"organization":{"reference":"urn:uuid:0b589972-4d02-4636-a090-964fe1952aa9"},"code":[{"coding":[{"system":"https://fhir.hl7.org.uk/STU3/CodeSystem/CareConnect-SDSJobRoleName-1","code":"R0990","display":"Orthoptist"}]}],"specialty":[{"coding":[{"system":"http://snomed.info/sct","code":"394594003","display":"Ophthalmology"}]}]}},{"fullUrl":"urn:uuid:3eb488e4-f1b1-433d-91ba-e9fe60550211","resource":{"resourceType":"Organization","id":"3eb488e4-f1b1-433d-91ba-e9fe60550211","meta":{"profile":["https://fhir.hl7.org.uk/STU3/StructureDefinition/CareConnect-Organization-1"]},"identifier":[{"system":"https://fhir.nhs.uk/Id/ods-organization-code","value":"A111111"}],"name":"Canvas Health Centre","address":[{"line":["27 Acacia Road"],"postalCode":"BM9 6PM"}]}},{"fullUrl":"urn:uuid:0b589972-4d02-4636-a090-964fe1952aa9","resource":{"resourceType":"Organization","id":"0b589972-4d02-4636-a090-964fe1952aa9","meta":{"profile":["https://fhir.hl7.org.uk/STU3/StructureDefinition/CareConnect-Organization-1"]},"identifier":[{"system":"https://fhir.nhs.uk/Id/ods-organization-code","value":"RX0001"}],"name":"Ophthalmology/orthoptics clinic","telecom":[{"system":"phone","value":"01234 567890","use":"work"},{"system":"email","value":"orthde@stcrispins.nhs.uk","use":"work"}],"address":[{"line":["Ophthalmology/orthoptics clinic","St Crispin's Hospital","Donaldstown"],"postalCode":"DO5 7TP"}]}},{"fullUrl":"urn:uuid:784e2b8a-8daa-42f3-8e65-ffe84aee00a5","resource":{"resourceType":"Organization","id":"784e2b8a-8daa-42f3-8e65-ffe84aee00a5","meta":{"profile":["https://fhir.hl7.org.uk/STU3/StructureDefinition/CareConnect-Organization-1"]},"identifier":[{"system":"https://fhir.nhs.uk/Id/ods-organization-code","value":"RX0000"}],"name":"Head Injury Team","address":[{"line":["St Crispin's Hospital"],"city":"Donaldstown","postalCode":"DO5 7TP"}]}}]}