{"resourceType":"Bundle","id":"6191cc21-cb11-4d99-8cb2-2afe1c7e9d2f","meta":{"lastUpdated":"2017-05-06T19:42:00+00:00","profile":["https://fhir.nhs.uk/STU3/StructureDefinition/ITK-Document-Bundle-1"]},"identifier":{"system":"https://tools.ietf.org/html/rfc4122","value":"720d56df-6ac7-4803-bde3-e3a2373cd61e"},"type":"document","entry":[{"fullUrl":"urn:uuid:95ab3b52-b229-43db-a919-fa09db5e08d3","resource":{"resourceType":"Composition","id":"95ab3b52-b229-43db-a919-fa09db5e08d3","meta":{"profile":["https://fhir.nhs.uk/STU3/StructureDefinition/CareConnect-ITK-OPL-Composition-1"]},"extension":[{"url":"https://fhir.hl7.org.uk/STU3/StructureDefinition/Extension-CareConnect-CareSettingType-1","valueCodeableConcept":{"coding":[{"system":"http://snomed.info/sct","code":"310091004","display":"Community-based dietetics service"}]}}],"identifier":{"system":"https://tools.ietf.org/html/rfc4122","value":"080725c3-eb0f-45b6-8beb-f33d9f0edabe"},"status":"final","type":{"coding":[{"system":"http://snomed.info/sct","code":"823681000000100","display":"Outpatient letter"}]},"subject":{"reference":"urn:uuid:4e17be8f-8694-47e3-8740-ccf306f6cf02"},"encounter":{"reference":"urn:uuid:bd25f74e-2be5-4728-ac16-4771e2998cd2"},"date":"2017-05-06T16:42:00+00:00","author":[{"reference":"urn:uuid:2c064afa-dbd6-44b8-86e6-a3e7fbdbcb48"}],"title":"Community-based Dietetics Service Outpatient Letter","custodian":{"reference":"urn:uuid:f93186cd-b628-47e6-b97f-102ae75e6845"},"section":[{"title":"Allergies and adverse reactions","code":{"coding":[{"system":"http://snomed.info/sct","code":"886921000000105","display":"Allergies and adverse reactions"}]},"text":{"status":"generated","div":"<div xmlns=\"http://www.w3.org/1999/xhtml\"><table width=\"100%\"><tbody><tr><th>Causative agent</th><td>No known allergy</td></tr></tbody></table></div>"},"entry":[{"reference":"urn:uuid:ecbeffa7-1adf-4301-a94f-1e297e4fed93"}]},{"title":"Attendance details","code":{"coding":[{"system":"http://snomed.info/sct","code":"1077881000000105","display":"Attendance details"}]},"text":{"status":"additional","div":"<div xmlns=\"http://www.w3.org/1999/xhtml\"><table width=\"100%\"><tbody><tr><td colspan=\"2\" style=\"width:100%\">Dear Dr. O'Reilly, <br />I had the pleasure of meeting \r\nMr. Linacre at the Community Nutrition and Dietetics outpatient clinic on 1 May 2017, \r\nreferred by Sugra Bibi, Hospital dietician at St Crispin's Hospital, Donaldstown, DO5 7TP.</td></tr><tr><th>Date and time of contact</th><td>01 May 2017 12:00</td></tr><tr><th>Contact type</th><td>First attendance face to face</td></tr><tr><th>Consultation method</th><td>Face-to-face</td></tr><tr><th>Responsible healthcare professional</th><td>Dr. Gerald McManus (Consultant Neurologist)</td></tr><tr><th>Specialty</th><td>Neurology</td></tr><tr><th>Service</th><td>Community-based dietetics service</td></tr><tr><th>Seen by</th><td><p>Prefix: Mrs</p><p>Given Name: Susan</p><p>Family Name: Blight</p><p>Role: Community Dietitian</p><p>Tel: 01234 569870 (Work)</p></td></tr><tr><th>Outcome of outpatient attendance</th><td>Appointment to be made at a later date</td></tr></tbody></table></div>"},"entry":[{"reference":"urn:uuid:bd25f74e-2be5-4728-ac16-4771e2998cd2"}]},{"title":"Clinical summary","code":{"coding":[{"system":"http://snomed.info/sct","code":"887181000000106","display":"Clinical summary"}]},"text":{"status":"additional","div":"<div xmlns=\"http://www.w3.org/1999/xhtml\"><table width=\"100%\"><tbody><tr><th>Clinical summary</th></tr><tr><td>The estimated nutritional requirements for Mr. Linacre are Energy 1500kcla/day, \r\nProtein 80g/day, Fluid 2400mls/day.</td></tr><tr><td>Mr. Linacre is tolerating his feed and fluid flushes well as per his feeding regimen \r\nand he reports being compliant with his medication.</td></tr><tr><td>Mr. Linacre's peg site has healed and was clean and dry and exposed on assessment.</td></tr><tr><td>Mr. Linacre's bowels are opening daily (with no bowel meds), \r\nall pressure areas are intact and his weight is stable.</td></tr></tbody></table></div>"}},{"title":"Diagnoses","code":{"coding":[{"system":"http://snomed.info/sct","code":"887161000000102","display":"Diagnoses"}]},"text":{"status":"generated","div":"<div xmlns=\"http://www.w3.org/1999/xhtml\"><table width=\"100%\"><tbody><tr><th>Diagnosis name</th><td>Stroke</td></tr></tbody></table></div>"},"entry":[{"reference":"urn:uuid:3a49e555-9ab6-40c2-aa2d-4aca09a2bc00"}]},{"title":"Distribution list","code":{"coding":[{"system":"http://snomed.info/sct","code":"887261000000109","display":"Distribution list"}]},"text":{"status":"additional","div":"<div xmlns=\"http://www.w3.org/1999/xhtml\"><table width=\"100%\"><tbody><tr><th>Name</th><td><p>Prefix: Mr</p><p>Given Name: Doug</p><p>Family Name: Sway</p></td></tr><tr><th>Role</th><td>Feeding Nurse</td></tr><tr><th>Organisation name</th><td>Company X</td></tr></tbody></table><table width=\"100%\"><tbody><tr><th>Name</th><td><p>Prefix: Dr</p><p>Given Name: C</p><p>Family Name: O'Reilly</p></td></tr><tr><th>Role</th><td>General Medical Practitioner</td></tr><tr><th>Organisation name</th><td>Canvas Health Centre</td></tr></tbody></table><table width=\"100%\"><tbody><tr><th>Name</th><td><p>Prefix: Ms</p><p>Given Name: Sugra</p><p>Family Name: Bibi</p></td></tr><tr><th>Role</th><td>Hospital-based dietitian</td></tr><tr><th>Organisation name</th><td>St. Crispin's Hospital</td></tr></tbody></table><table width=\"100%\"><tbody><tr><th>Name</th><td><p>Prefix: Dr</p><p>Given Name: Gerald</p><p>Family Name: McManus</p></td></tr><tr><th>Role</th><td>Consultant Neurologist</td></tr><tr><th>Organisation name</th><td>St. Crispin's Hospital</td></tr></tbody></table><table width=\"100%\"><tbody><tr><th>Name</th><td><p>Prefix: Mr</p><p>Given Name: Thomas</p><p>Family Name: Linacre</p></td></tr></tbody></table></div>"},"entry":[{"reference":"urn:uuid:5ca24866-f34e-43d5-9d4a-c661beb9b5ae"},{"reference":"urn:uuid:5e414a77-d394-4248-a631-00e45ddb64a0"},{"reference":"urn:uuid:246a8b1a-24af-4690-b894-effe41c5638b"},{"reference":"urn:uuid:d25fd1c6-2658-4db7-9af0-86c5f95e8ec9"},{"reference":"urn:uuid:4e17be8f-8694-47e3-8740-ccf306f6cf02"}]},{"title":"Examination finding","code":{"coding":[{"system":"http://snomed.info/sct","code":"715851000000102","display":"Examination findings"}]},"text":{"status":"additional","div":"<div xmlns=\"http://www.w3.org/1999/xhtml\"><table width=\"100%\"><tbody><tr><th>Examination findings</th><td>Weight 80kg, Height 175cm, BMI 26kg/m2</td></tr></tbody></table></div>"}},{"title":"GP practice","code":{"coding":[{"system":"http://snomed.info/sct","code":"886711000000101","display":"GP practice"}]},"text":{"status":"additional","div":"<div xmlns=\"http://www.w3.org/1999/xhtml\"><table width=\"100%\"><tbody><tr><th>GP name</th><td><p>Prefix: Dr</p><p>Given Name: C</p><p>Family Name: O'Reilly</p></td></tr><tr><th>GP practice details</th><td><p>Name: Canvas Health Centre</p><p>Address:</p><p>Address Line: 27, Acacia Road</p><p>Post Code: BM9 6PM</p></td></tr></tbody></table></div>"},"entry":[{"reference":"urn:uuid:f9f24f89-646b-4a19-a6b1-cabfa3b612e1"}]},{"title":"History","code":{"coding":[{"system":"http://snomed.info/sct","code":"717121000000105","display":"History"}]},"text":{"status":"additional","div":"<div xmlns=\"http://www.w3.org/1999/xhtml\"><table width=\"100%\"><tbody><tr><th>Presenting complaints or issue</th><td>Dysphagia</td></tr><tr><th>History of each presenting complaint or issue</th><td>Mr. Linacre attended the community nutrition and dietetics outpatient clinic \r\nfor review of feeding. During a recent admission to hospital Mr. Linacre was \r\nestablished on PEG tube feeding. The feeding tube insitu is a 15French PEG tube placed 05/04/17.</td></tr><tr><th>History since last contact</th><td>Mr. Linacre's feeding regimen being: 1000mls Fresubin Energy Fibre liquid unflavoured at 100mls/hours \r\nfor 10 hours (9am-7pm) with 1400mls water given as divided flushes (e.g. 10x140mls) \r\nthroughout the day e.g. before and after feed and with medications. His weight is stable. \r\nMr. Linacre has tolerated the regimen well.</td></tr></tbody></table></div>"},"entry":[{"reference":"urn:uuid:3a49e555-9ab6-40c2-aa2d-4aca09a2bc00"}]},{"title":"Individual requirements","code":{"coding":[{"system":"http://snomed.info/sct","code":"1078911000000106","display":"Individual requirements"}]},"text":{"status":"additional","div":"<div xmlns=\"http://www.w3.org/1999/xhtml\"><table width=\"100%\"><tbody><tr><th>Individual requirements</th><td>Patient requires a backpack as he did not like feeding during the night \r\nwhen he was in hospital and he feels restricted staying at home at present.</td></tr></tbody></table></div>"}},{"title":"Information and advice given","code":{"coding":[{"system":"http://snomed.info/sct","code":"1052951000000105","display":"Information and advice given"}]},"text":{"status":"additional","div":"<div xmlns=\"http://www.w3.org/1999/xhtml\"><table width=\"100%\"><tbody><tr><th>Information and advice given</th><td>Mr. Linacre was given the clinic contact details and a copy of his feeding regime with Trust guidance.</td></tr></tbody></table></div>"}},{"title":"Medications and medical devices","code":{"coding":[{"system":"http://snomed.info/sct","code":"933361000000108","display":"Medications and medical devices"}]},"text":{"status":"additional","div":"<div xmlns=\"http://www.w3.org/1999/xhtml\"><table width=\"100%\"><tbody><tr><td style=\"width:100%\">(only changes to medications and medical devices \r\nas a result of the outpatient encounter are included)</td></tr></tbody></table><table width=\"100%\"><tbody><tr><th>Medication name</th><td>Fresubin Energy Fibre liquid unflavoured (Fresenius Kabi Ltd)</td></tr><tr><th>Form</th><td>Gastroenteral liquid</td></tr><tr><th>Route</th><td>Gastroenteral</td></tr><tr><th>Site</th><td>PEG</td></tr><tr><th>Method</th><td>Pump</td></tr><tr><th>Dose amount description</th><td>100mls</td></tr><tr><th>Dose timing description</th><td>Per hour for 10 hours daily, 9am-7pm</td></tr><tr><th>Additional instruction</th><td>1400mls water given as divided flushes (e.g. 10x140mls) throughout the day e.g. before and after feed and with medications.</td></tr><tr><th>Indication</th><td>Medication to be ongoing and prescribed by GP.</td></tr><tr><th>Comment/recommendation</th><td>Mr. Linacre has been supplied with a feeding pump. Prescription to be sent directly to the feed company who will deliver direct to patient.</td></tr><tr><th>Status</th><td>Amended</td></tr><tr><th>Date of latest change</th><td>01/05/2017</td></tr><tr><th>Medication change</th><td>GP to prescribe 28 x 1000ml bags per month, ongoing.</td></tr></tbody></table></div>"},"entry":[{"reference":"urn:uuid:cef7f8d5-78e3-4866-89f1-62470d6fd636"}]},{"title":"Patient demographics","code":{"coding":[{"system":"http://snomed.info/sct","code":"886731000000109","display":"Patient demographics"}]},"text":{"status":"generated","div":"<div xmlns=\"http://www.w3.org/1999/xhtml\"><table width=\"100%\"><tbody><tr><th>Patient name</th><td>Official name <p>Prefix: Mr</p><p>Given Name: Thomas</p><p>Family Name: Linacre</p></td></tr><tr><th>Patient preferred name</th><td><p>Prefix: Mr</p><p>Given Name: Tom</p><p>Family Name: Linacre</p></td></tr><tr><th>Date of birth</th><td>1 January 1960</td></tr><tr><th>Gender</th><td>Male</td></tr><tr><th>NHS number</th><td>1234567891</td></tr><tr><th>Other identifier</th><td>TL98765</td></tr><tr><th>Patient address</th><td><p>Address Line: 29, Acacia Road</p><p>Post Code: BM9 6PL</p></td></tr><tr><th>Patient email address</th><td>thomas@linacre.net</td></tr><tr><th>Patient telephone number</th><td>Mobile: 077 7777 777</td></tr></tbody></table></div>"},"entry":[{"reference":"urn:uuid:4e17be8f-8694-47e3-8740-ccf306f6cf02"}]},{"title":"Person completing record","code":{"coding":[{"system":"http://snomed.info/sct","code":"887231000000104","display":"Person completing record"}]},"text":{"status":"additional","div":"<div xmlns=\"http://www.w3.org/1999/xhtml\"><table width=\"100%\"><tbody><tr><th>Name</th><td>Susan Blight</td></tr><tr><th>Role</th><td>Community Dietitian</td></tr><tr><th>Specialty</th><td>Dietetics and nutrition</td></tr><tr><th>Professional identifier</th><td>HCPC: DT03001</td></tr><tr><th>Date and time completed</th><td>06 May 2017 16:42</td></tr><tr><th>Contact details</th><td>Tel: 01234 569870 (Work)</td></tr></tbody></table></div>"},"entry":[{"reference":"urn:uuid:2c064afa-dbd6-44b8-86e6-a3e7fbdbcb48"}]},{"title":"Plan and requested actions","code":{"coding":[{"system":"http://snomed.info/sct","code":"887201000000105","display":"Plan and requested actions"}]},"text":{"status":"additional","div":"<div xmlns=\"http://www.w3.org/1999/xhtml\"><table width=\"100%\"><tbody><tr><th>Actions for healthcare professionals</th><td>A backpack has been ordered (05/05/17) so that Mr. Linacre can feed when he goes out during the day as he did not like feeding during the night when he was in hospital and feels restricted to stay at home at the moment.<br /><p>Person Responsible: Susan Blight - Community Dietitian, Adobe Health Centre Community Dietetics Department.</p><p>Action status: Completed</p><br />\r\n \r\n Follow-up via telephone within 1 month.<br /><p>Person Responsible: Susan Blight - Community Dietitian, Adobe Health Centre Community Dietetics Department.</p><p>Action status: Requested</p><br />\r\n \r\n Please prescribe 28 x 100ml bags per month. Prescription to be sent directly to \r\n the feed company who will deliver direct to patient. <br /><p>Person Responsible: Dr. C. O'Reilly - GP, Canvas Health Centre. </p><p>Action status: Requested</p><br />\r\n \r\n Feeding Company Nurse has been requested (05/05/17) to train Mr. Linacre on use of pump. <br /><p>Person Responsible: Doug Sway - Feeding nurse, Company X.</p><p> Action status: Requested</p></td></tr><tr><th>Actions for patient or their carer</th><td>Mr. Linacre has been asked to continue on feeding regime.</td></tr><tr><th>Agreed with patient or legitimate patient representative</th><td>Mr. Linacre has agreed to continue on the recommended regime.</td></tr></tbody></table></div>"}},{"title":"Problems and issues","code":{"coding":[{"system":"http://snomed.info/sct","code":"887151000000100","display":"Problems and issues"}]},"text":{"status":"additional","div":"<div xmlns=\"http://www.w3.org/1999/xhtml\"><table width=\"100%\"><tbody><tr><th>Problems and issue</th><td>Acquired swallowing difficulties</td></tr></tbody></table></div>"}},{"title":"Referrer details","code":{"coding":[{"system":"http://snomed.info/sct","code":"1052891000000108","display":"Referrer details"}]},"text":{"status":"generated","div":"<div xmlns=\"http://www.w3.org/1999/xhtml\"><table width=\"100%\"><tbody><tr><th>Referrer details</th><td><p>Name: </p><p>Prefix: Ms</p><p>Given name: Sugra</p><p>Family name: Bibi</p><p>Role: Hospital-based dietitian</p><p>Tel: 01234 777870</p><p>Organisation name: St. Crispin's Hospital</p><p>City: Donaldstown</p><p>Postcode: DO5 7TP</p></td></tr></tbody></table></div>"},"entry":[{"reference":"urn:uuid:246a8b1a-24af-4690-b894-effe41c5638b"},{"reference":"urn:uuid:12bba528-a08a-448b-946b-7e8008044025"}]}]}},{"fullUrl":"urn:uuid:bd25f74e-2be5-4728-ac16-4771e2998cd2","resource":{"resourceType":"Encounter","id":"bd25f74e-2be5-4728-ac16-4771e2998cd2","meta":{"profile":["https://fhir.nhs.uk/STU3/StructureDefinition/CareConnect-ITK-Encounter-1"]},"extension":[{"url":"https://fhir.hl7.org.uk/STU3/StructureDefinition/Extension-CareConnect-OutcomeOfAttendance-1","valueCodeableConcept":{"coding":[{"system":"https://fhir.hl7.org.uk/STU3/CodeSystem/CareConnect-OutcomeOfAttendance-1","code":"3","display":"Appointment to be made at a later date"}]}}],"identifier":[{"system":"https://tools.ietf.org/html/rfc4122","value":"13c73015-d8fa-4844-8d68-4f856883eca8"}],"status":"finished","class":{"system":"http://hl7.org/fhir/v3-ActEncounterCode","code":"AMB","display":"ambulatory"},"type":[{"coding":[{"system":"https://www.datadictionary.nhs.uk","code":"1","display":"First attendance face to face"}]}],"subject":{"reference":"urn:uuid:4e17be8f-8694-47e3-8740-ccf306f6cf02"},"participant":[{"type":[{"coding":[{"system":"http://hl7.org/fhir/v3/ParticipationType","code":"ATND","display":"attender"}]}],"individual":{"reference":"urn:uuid:2c064afa-dbd6-44b8-86e6-a3e7fbdbcb48"}},{"type":[{"coding":[{"system":"http://hl7.org/fhir/v3/ParticipationType","code":"CON","display":"consultant"}]}],"individual":{"reference":"urn:uuid:d25fd1c6-2658-4db7-9af0-86c5f95e8ec9"}}],"period":{"start":"2017-05-01T12:00:00+00:00","end":"2017-05-01T13:00:00+00:00"}}},{"fullUrl":"urn:uuid:ecbeffa7-1adf-4301-a94f-1e297e4fed93","resource":{"resourceType":"List","id":"ecbeffa7-1adf-4301-a94f-1e297e4fed93","meta":{"profile":["https://fhir.nhs.uk/STU3/StructureDefinition/CareConnect-ITK-Allergy-List-1"]},"identifier":[{"system":"https://tools.ietf.org/html/rfc4122","value":"bbde54bb-adfb-452e-a829-c50a42709080"}],"status":"current","mode":"snapshot","code":{"coding":[{"system":"http://snomed.info/sct","code":"886921000000105","display":"Allergies and adverse reactions"}]},"subject":{"reference":"urn:uuid:4e17be8f-8694-47e3-8740-ccf306f6cf02"},"encounter":{"reference":"urn:uuid:bd25f74e-2be5-4728-ac16-4771e2998cd2"},"source":{"reference":"urn:uuid:2c064afa-dbd6-44b8-86e6-a3e7fbdbcb48"},"entry":[{"item":{"reference":"urn:uuid:6f8f2868-231d-4066-928c-3f7e0a116112"}}]}},{"fullUrl":"urn:uuid:6f8f2868-231d-4066-928c-3f7e0a116112","resource":{"resourceType":"AllergyIntolerance","id":"6f8f2868-231d-4066-928c-3f7e0a116112","meta":{"profile":["https://fhir.nhs.uk/STU3/StructureDefinition/CareConnect-ITK-AllergyIntolerance-1"]},"identifier":[{"system":"https://tools.ietf.org/html/rfc4122","value":"432351ad-3ecf-4444-a718-99e86e365d2d"}],"clinicalStatus":"active","verificationStatus":"confirmed","code":{"coding":[{"system":"http://snomed.info/sct","code":"716186003","display":"No known allergy"}]},"patient":{"reference":"urn:uuid:4e17be8f-8694-47e3-8740-ccf306f6cf02"}}},{"fullUrl":"urn:uuid:cef7f8d5-78e3-4866-89f1-62470d6fd636","resource":{"resourceType":"List","id":"cef7f8d5-78e3-4866-89f1-62470d6fd636","meta":{"profile":["https://fhir.nhs.uk/STU3/StructureDefinition/CareConnect-ITK-Medication-List-1"]},"identifier":[{"system":"https://tools.ietf.org/html/rfc4122","value":"c28e33b7-dd29-4c9d-957c-ab4a834e5e77"}],"status":"current","mode":"snapshot","code":{"coding":[{"system":"http://snomed.info/sct","code":"1102411000000102","display":"Active medications"}]},"subject":{"reference":"urn:uuid:4e17be8f-8694-47e3-8740-ccf306f6cf02"},"encounter":{"reference":"urn:uuid:bd25f74e-2be5-4728-ac16-4771e2998cd2"},"source":{"reference":"urn:uuid:2c064afa-dbd6-44b8-86e6-a3e7fbdbcb48"},"entry":[{"item":{"reference":"urn:uuid:9ab72b73-c3e2-434a-a7df-234134215a7e"}}]}},{"fullUrl":"urn:uuid:9ab72b73-c3e2-434a-a7df-234134215a7e","resource":{"resourceType":"MedicationStatement","id":"9ab72b73-c3e2-434a-a7df-234134215a7e","meta":{"profile":["https://fhir.nhs.uk/STU3/StructureDefinition/CareConnect-ITK-MedicationStatement-1"]},"extension":[{"url":"https://fhir.hl7.org.uk/STU3/StructureDefinition/Extension-CareConnect-MedicationChangeSummary-1","extension":[{"url":"status","valueCode":"Amended"},{"url":"dateChanged","valueDateTime":"2017-05-01"},{"url":"detailsOfAmendment","valueString":"GP to prescribe 28 x 1000ml bags per month, ongoing."}]}],"context":{"reference":"urn:uuid:bd25f74e-2be5-4728-ac16-4771e2998cd2"},"status":"active","medicationReference":{"reference":"urn:uuid:46c1a1b6-c2a5-44bc-a0df-80db5d4fb423"},"subject":{"reference":"urn:uuid:4e17be8f-8694-47e3-8740-ccf306f6cf02"},"taken":"unk","dosage":[{"text":"100mls per hour for 10 hours daily, 9am-7pm","patientInstruction":"1400mls water given as divided flushes (e.g. 10x140mls) throughout the day e.g. before and after feed and with medications.","route":{"coding":[{"system":"http://snomed.info/sct","code":"372454008","display":"Gastroenteral"}]}}]}},{"fullUrl":"urn:uuid:46c1a1b6-c2a5-44bc-a0df-80db5d4fb423","resource":{"resourceType":"Medication","id":"46c1a1b6-c2a5-44bc-a0df-80db5d4fb423","meta":{"profile":["https://fhir.nhs.uk/STU3/StructureDefinition/CareConnect-ITK-Medication-1"]},"code":{"coding":[{"system":"http://snomed.info/sct","code":"117111000001108","display":"Fresubin Energy Fibre liquid unflavoured (Fresenius Kabi Ltd)"}]},"form":{"coding":[{"system":"http://snomed.info/sct","code":"35367711000001100","display":"Gastroenteral liquid"}]}}},{"fullUrl":"urn:uuid:3a49e555-9ab6-40c2-aa2d-4aca09a2bc00","resource":{"resourceType":"List","id":"3a49e555-9ab6-40c2-aa2d-4aca09a2bc00","meta":{"profile":["https://fhir.nhs.uk/STU3/StructureDefinition/CareConnect-ITK-Condition-List-1"]},"identifier":[{"system":"https://tools.ietf.org/html/rfc4122","value":"3f26dd55-5a1e-45b2-ad39-7352698ea9c4"}],"status":"current","mode":"snapshot","code":{"coding":[{"system":"http://snomed.info/sct","code":"887161000000102","display":"Diagnoses"}]},"subject":{"reference":"urn:uuid:4e17be8f-8694-47e3-8740-ccf306f6cf02"},"encounter":{"reference":"urn:uuid:bd25f74e-2be5-4728-ac16-4771e2998cd2"},"source":{"reference":"urn:uuid:2c064afa-dbd6-44b8-86e6-a3e7fbdbcb48"},"entry":[{"item":{"reference":"urn:uuid:abbf4c46-f97b-4b04-9248-4f99a21e1879"}},{"item":{"reference":"urn:uuid:4ee4465e-ed0d-4a62-b110-6fcfce3156e9"}}]}},{"fullUrl":"urn:uuid:abbf4c46-f97b-4b04-9248-4f99a21e1879","resource":{"resourceType":"Condition","id":"abbf4c46-f97b-4b04-9248-4f99a21e1879","meta":{"profile":["https://fhir.nhs.uk/STU3/StructureDefinition/CareConnect-ITK-Condition-1"]},"identifier":[{"system":"https://tools.ietf.org/html/rfc4122","value":"c4b2d64e-23f3-4055-8299-141aacf9c16c"}],"clinicalStatus":"active","category":[{"coding":[{"system":"https://fhir.hl7.org.uk/STU3/CodeSystem/CareConnect-ConditionCategory-1","code":"encounter-diagnosis","display":"Encounter Diagnosis"}]}],"code":{"coding":[{"system":"http://snomed.info/sct","code":"230690007","display":"Stroke"}]},"subject":{"reference":"urn:uuid:4e17be8f-8694-47e3-8740-ccf306f6cf02"}}},{"fullUrl":"urn:uuid:4ee4465e-ed0d-4a62-b110-6fcfce3156e9","resource":{"resourceType":"Condition","id":"4ee4465e-ed0d-4a62-b110-6fcfce3156e9","meta":{"profile":["https://fhir.nhs.uk/STU3/StructureDefinition/CareConnect-ITK-Condition-1"]},"identifier":[{"system":"https://tools.ietf.org/html/rfc4122","value":"dc1e1c67-c503-4802-8db2-e9d3d5912807"}],"clinicalStatus":"active","category":[{"coding":[{"system":"https://fhir.hl7.org.uk/STU3/CodeSystem/CareConnect-ConditionCategory-1","code":"presenting-complaint","display":"Presenting Complaint"}]}],"code":{"coding":[{"system":"http://snomed.info/sct","code":"40739000","display":"Dysphagia"}]},"subject":{"reference":"urn:uuid:4e17be8f-8694-47e3-8740-ccf306f6cf02"}}},{"fullUrl":"urn:uuid:4e17be8f-8694-47e3-8740-ccf306f6cf02","resource":{"resourceType":"Patient","id":"4e17be8f-8694-47e3-8740-ccf306f6cf02","meta":{"profile":["https://fhir.hl7.org.uk/STU3/StructureDefinition/CareConnect-Patient-1"]},"identifier":[{"extension":[{"url":"https://fhir.hl7.org.uk/STU3/StructureDefinition/Extension-CareConnect-NHSNumberVerificationStatus-1","valueCodeableConcept":{"coding":[{"system":"https://fhir.hl7.org.uk/STU3/CodeSystem/CareConnect-NHSNumberVerificationStatus-1","code":"01","display":"Number present and verified"}]}}],"system":"https://fhir.nhs.uk/Id/nhs-number","value":"1234567890"},{"system":"https://fhir.nhs.uk/Id/local-patient-identifier","value":"TL98765"}],"name":[{"use":"official","family":"Linacre","given":["Thomas"],"prefix":["Mr"]},{"use":"usual","family":"Linacre","given":["Tom"],"prefix":["Mr"]}],"telecom":[{"system":"phone","value":"077 7777 777","use":"mobile"},{"system":"email","value":"thomas@linacre.net"}],"gender":"male","birthDate":"1960-01-01","address":[{"line":["29 Acacia Road"],"postalCode":"BM9 6PL"}]}},{"fullUrl":"urn:uuid:5e414a77-d394-4248-a631-00e45ddb64a0","resource":{"resourceType":"Practitioner","id":"5e414a77-d394-4248-a631-00e45ddb64a0","meta":{"profile":["https://fhir.hl7.org.uk/STU3/StructureDefinition/CareConnect-Practitioner-1"]},"identifier":[{"system":"https://fhir.nhs.uk/Id/local-practitioner-identifier","value":"8122472"}],"name":[{"family":"O'Reilly","given":["C"],"prefix":["Dr"]}]}},{"fullUrl":"urn:uuid:d25fd1c6-2658-4db7-9af0-86c5f95e8ec9","resource":{"resourceType":"Practitioner","id":"d25fd1c6-2658-4db7-9af0-86c5f95e8ec9","meta":{"profile":["https://fhir.hl7.org.uk/STU3/StructureDefinition/CareConnect-Practitioner-1"]},"identifier":[{"system":"https://fhir.hl7.org.uk/Id/gmc-number","value":"1122472"}],"name":[{"family":"McManus","given":["Gerald"],"prefix":["Dr"]}]}},{"fullUrl":"urn:uuid:5ca24866-f34e-43d5-9d4a-c661beb9b5ae","resource":{"resourceType":"Practitioner","id":"5ca24866-f34e-43d5-9d4a-c661beb9b5ae","meta":{"profile":["https://fhir.hl7.org.uk/STU3/StructureDefinition/CareConnect-Practitioner-1"]},"identifier":[{"system":"https://fhir.nhs.uk/Id/local-practitioner-identifier","value":"5122472"}],"name":[{"family":"Sway","given":["Doug"],"prefix":["Mr"]}]}},{"fullUrl":"urn:uuid:246a8b1a-24af-4690-b894-effe41c5638b","resource":{"resourceType":"Practitioner","id":"246a8b1a-24af-4690-b894-effe41c5638b","meta":{"profile":["https://fhir.hl7.org.uk/STU3/StructureDefinition/CareConnect-Practitioner-1"]},"identifier":[{"system":"https://fhir.nhs.uk/Id/sds-user-id","value":"033345750510"}],"name":[{"family":"Bibi","given":["Sugra"],"prefix":["Ms"]}],"telecom":[{"system":"phone","value":"01234 777870","use":"work"}]}},{"fullUrl":"urn:uuid:2c064afa-dbd6-44b8-86e6-a3e7fbdbcb48","resource":{"resourceType":"Practitioner","id":"2c064afa-dbd6-44b8-86e6-a3e7fbdbcb48","meta":{"profile":["https://fhir.hl7.org.uk/STU3/StructureDefinition/CareConnect-Practitioner-1"]},"identifier":[{"system":"https://fhir.hl7.org.uk/Id/hcpc-number","value":"DT03001"}],"name":[{"family":"Blight","given":["Susan"],"prefix":["Mrs"]}],"telecom":[{"system":"phone","value":"01234 569870","use":"work"}]}},{"fullUrl":"urn:uuid:2b103117-a783-4a66-a0de-f308cd6b63cf","resource":{"resourceType":"PractitionerRole","id":"2b103117-a783-4a66-a0de-f308cd6b63cf","meta":{"profile":["https://fhir.hl7.org.uk/STU3/StructureDefinition/CareConnect-PractitionerRole-1"]},"practitioner":{"reference":"urn:uuid:5e414a77-d394-4248-a631-00e45ddb64a0"},"organization":{"reference":"urn:uuid:f9f24f89-646b-4a19-a6b1-cabfa3b612e1"},"code":[{"coding":[{"system":"https://fhir.hl7.org.uk/STU3/CodeSystem/CareConnect-SDSJobRoleName-1","code":"R0260","display":"General Medical Practitioner"}]}]}},{"fullUrl":"urn:uuid:2e9585bc-4a09-4a06-8862-5a8cb6198fa7","resource":{"resourceType":"PractitionerRole","id":"2e9585bc-4a09-4a06-8862-5a8cb6198fa7","meta":{"profile":["https://fhir.hl7.org.uk/STU3/StructureDefinition/CareConnect-PractitionerRole-1"]},"practitioner":{"reference":"urn:uuid:d25fd1c6-2658-4db7-9af0-86c5f95e8ec9"},"organization":{"reference":"urn:uuid:12bba528-a08a-448b-946b-7e8008044025"},"code":[{"coding":[{"system":"https://fhir.nhs.uk/STU3/CodeSystem/CareConnect-SDSJobRoleName-1","code":"R0050","display":"Consultant"}]}],"specialty":[{"coding":[{"system":"http://snomed.info/sct","code":"394591006","display":"Neurology"}]}]}},{"fullUrl":"urn:uuid:2bba2b2b-2b55-43ef-9b27-7ccf374cbaed","resource":{"resourceType":"PractitionerRole","id":"2bba2b2b-2b55-43ef-9b27-7ccf374cbaed","meta":{"profile":["https://fhir.hl7.org.uk/STU3/StructureDefinition/CareConnect-PractitionerRole-1"]},"practitioner":{"reference":"urn:uuid:5ca24866-f34e-43d5-9d4a-c661beb9b5ae"},"organization":{"reference":"urn:uuid:b945154b-114f-4da3-98fb-7f6978083e9b"}}},{"fullUrl":"urn:uuid:ea8932d8-e341-46e3-849f-0fa24f48b5fc","resource":{"resourceType":"PractitionerRole","id":"ea8932d8-e341-46e3-849f-0fa24f48b5fc","meta":{"profile":["https://fhir.hl7.org.uk/STU3/StructureDefinition/CareConnect-PractitionerRole-1"]},"practitioner":{"reference":"urn:uuid:246a8b1a-24af-4690-b894-effe41c5638b"},"organization":{"reference":"urn:uuid:12bba528-a08a-448b-946b-7e8008044025"},"code":[{"coding":[{"system":"http://snomed.info/sct","code":"309399009","display":"Hospital-based dietitian"}]}]}},{"fullUrl":"urn:uuid:b9ea89f3-10d1-404d-810e-f8623ee11406","resource":{"resourceType":"PractitionerRole","id":"b9ea89f3-10d1-404d-810e-f8623ee11406","meta":{"profile":["https://fhir.hl7.org.uk/STU3/StructureDefinition/CareConnect-PractitionerRole-1"]},"practitioner":{"reference":"urn:uuid:2c064afa-dbd6-44b8-86e6-a3e7fbdbcb48"},"organization":{"reference":"urn:uuid:f93186cd-b628-47e6-b97f-102ae75e6845"},"code":[{"coding":[{"system":"http://snomed.info/sct","code":"60008001","display":"Community dietitian"}]}],"specialty":[{"coding":[{"system":"http://snomed.info/sct","code":"722164000","display":"Dietetics and nutrition"}]}]}},{"fullUrl":"urn:uuid:f9f24f89-646b-4a19-a6b1-cabfa3b612e1","resource":{"resourceType":"Organization","id":"f9f24f89-646b-4a19-a6b1-cabfa3b612e1","meta":{"profile":["https://fhir.hl7.org.uk/STU3/StructureDefinition/CareConnect-Organization-1"]},"identifier":[{"system":"https://fhir.nhs.uk/Id/ods-organization-code","value":"A111111"}],"name":"Canvas Health Centre","address":[{"line":["27 Acacia Road"],"postalCode":"BM9 6PM"}]}},{"fullUrl":"urn:uuid:12bba528-a08a-448b-946b-7e8008044025","resource":{"resourceType":"Organization","id":"12bba528-a08a-448b-946b-7e8008044025","meta":{"profile":["https://fhir.hl7.org.uk/STU3/StructureDefinition/CareConnect-Organization-1"]},"identifier":[{"system":"https://fhir.nhs.uk/Id/ods-organization-code","value":"RX0000"}],"name":"St Crispin's Hospital","address":[{"city":"Donaldstown","postalCode":"DO5 7TP"}]}},{"fullUrl":"urn:uuid:b945154b-114f-4da3-98fb-7f6978083e9b","resource":{"resourceType":"Organization","id":"b945154b-114f-4da3-98fb-7f6978083e9b","meta":{"profile":["https://fhir.hl7.org.uk/STU3/StructureDefinition/CareConnect-Organization-1"]},"name":"Company X"}},{"fullUrl":"urn:uuid:f93186cd-b628-47e6-b97f-102ae75e6845","resource":{"resourceType":"Organization","id":"f93186cd-b628-47e6-b97f-102ae75e6845","meta":{"profile":["https://fhir.hl7.org.uk/STU3/StructureDefinition/CareConnect-Organization-1"]},"name":"Community Nutrition and Dietetics Department","telecom":[{"system":"phone","value":"01234 567890","use":"work"},{"system":"email","value":"cndd@adobehc.nhs.uk"}],"address":[{"line":["Adobe Health Centre"],"city":"Donaldstown","postalCode":"DO1 4XP"}]}}]}