{"resourceType":"Bundle","id":"6191cc21-cb11-4d99-8cb2-2afe1c7e9d2f","meta":{"lastUpdated":"2017-05-01T18:42:00+00:00","profile":["https://fhir.nhs.uk/STU3/StructureDefinition/ITK-Document-Bundle-1"]},"identifier":{"system":"https://tools.ietf.org/html/rfc4122","value":"ad8f4875-3224-49b3-aa63-5e338b76a34f"},"type":"document","entry":[{"fullUrl":"urn:uuid:2deee69e-70a3-4e90-b923-92ee86a15399","resource":{"resourceType":"Composition","id":"2deee69e-70a3-4e90-b923-92ee86a15399","meta":{"profile":["https://fhir.nhs.uk/STU3/StructureDefinition/CareConnect-ITK-OPL-Composition-1"]},"extension":[{"url":"https://fhir.hl7.org.uk/STU3/StructureDefinition/Extension-CareConnect-CareSettingType-1","valueCodeableConcept":{"coding":[{"system":"http://snomed.info/sct","code":"829981000000108","display":"Community child health service"}]}}],"identifier":{"system":"https://tools.ietf.org/html/rfc4122","value":"124c75d3-8816-44d0-93a6-b8626280ad56"},"status":"final","type":{"coding":[{"system":"http://snomed.info/sct","code":"823681000000100","display":"Outpatient letter"}]},"subject":{"reference":"urn:uuid:6c66c32f-655a-4b9c-9bb7-5ae31fc93010"},"encounter":{"reference":"urn:uuid:4f36b35a-ad18-4ea9-a3fb-c893f709e88a"},"date":"2017-05-01T16:42:00+00:00","author":[{"reference":"urn:uuid:7ed1b03c-47f9-43c8-8dd2-675819cd8aee"}],"title":"Community Child Health Service Outpatient Letter","custodian":{"reference":"urn:uuid:f725c91c-e4c2-43f2-b92e-0cba8deb9687"},"section":[{"title":"Allergies and adverse reactions","code":{"coding":[{"system":"http://snomed.info/sct","code":"886921000000105","display":"Allergies and adverse reactions"}]},"text":{"status":"generated","div":"<div xmlns=\"http://www.w3.org/1999/xhtml\"><table width=\"100%\"><tbody><tr><th>Causative agent</th><td>No known allergy</td></tr></tbody></table></div>"},"entry":[{"reference":"urn:uuid:fffe7d77-70d0-41a7-8f48-185a58854dc2"}]},{"title":"Attendance details","code":{"coding":[{"system":"http://snomed.info/sct","code":"1077881000000105","display":"Attendance details"}]},"text":{"status":"additional","div":"<div xmlns=\"http://www.w3.org/1999/xhtml\"><table width=\"100%\"><tbody><tr><td colspan=\"2\" style=\"width:100%\">Dear Dr. O'Reilly, <br />I had the pleasure of seeing Mary and her mother Sally in my outpatient clinic today.<br /></td></tr><tr><th>Date and time of contact</th><td>01-May-2017 10:00</td></tr><tr><th>Contact type</th><td>Follow-up attendance face to face</td></tr><tr><th>Consultation method</th><td>Face-to-face</td></tr><tr><th>Responsible healthcare professional</th><td>Dr. Arnold Rimmer (Community paediatrician)</td></tr><tr><th>Specialty</th><td>Paediatric speciality</td></tr><tr><th>Service</th><td>Community child health service</td></tr><tr><th>Seen by</th><td><p>Prefix: Dr</p><p>Given Name: Arnold</p><p>Family Name: Rimmer</p><p>Role: Community paediatrician</p><p>Tel: 01234 564563 (Work) Email: cpc@nhs.uk (Work)</p></td></tr><tr><th>Care professionals present</th></tr><tr><td><p>Prefix: Mrs</p><p>Given Name: Jenny</p><p>Family Name: White</p><p>Role: Occupational Therapist</p></td></tr><tr><td><p>Prefix: Mrs</p><p>Given Name: Sarah</p><p>Family Name: Hall</p><p>Role: Healthcare Assistant</p></td></tr><tr><th>Person accompanying patient</th><td>Sally Jones, patient's mother<p>Mobile: 077 1234 7777</p><p>Email: sally@jones.net</p></td></tr><tr><th>Outcome of outpatient attendance</th><td>Appointment to be made at a later date</td></tr></tbody></table></div>"},"entry":[{"reference":"urn:uuid:4f36b35a-ad18-4ea9-a3fb-c893f709e88a"}]},{"title":"Clinical review of systems","code":{"coding":[{"system":"http://snomed.info/sct","code":"887121000000105","display":"Review of systems"}]},"text":{"status":"additional","div":"<div xmlns=\"http://www.w3.org/1999/xhtml\"><table width=\"100%\"><tbody><tr><th>Clinical review of systems</th></tr><tr><td><p style=\"text-decoration:underline\">Neurodevelopmental assessment</p><p>Mary can now sit unsupported for about 30 seconds. When lying prone she can draw her knees up underneath her but does not make any attempts to move. In clinic she was able to complete the circle and square form board but cannot do them reversed. She can say 10 words with meaning and her mother feels she can understand far more. She is able to finger feed and will drink from a cup if it is held for her. She is becoming more sociable and has a lovely smile.</p></td></tr></tbody></table></div>"}},{"title":"Clinical summary","code":{"coding":[{"system":"http://snomed.info/sct","code":"887181000000106","display":"Clinical summary"}]},"text":{"status":"additional","div":"<div xmlns=\"http://www.w3.org/1999/xhtml\"><table width=\"100%\"><tbody><tr><th>Clinical summary</th></tr><tr><td><p>Mary attended today for a scheduled review of tonic-clonic seizures and gastro-oesophageal reflux.</p><p>Mary has been well. However she is now having on average four tonic-clonic seizures a day. Her mother has had to give her rectal diazepam on two occasions but she has not needed to go to hospital. She had a PEG inserted in April 2017 and her reflux has reduced considerably since then. She has increasing spasticity of right hip and more frequent tonic-clonic convulsions.</p></td></tr></tbody></table></div>"}},{"title":"Diagnoses","code":{"coding":[{"system":"http://snomed.info/sct","code":"887161000000102","display":"Diagnoses"}]},"text":{"status":"generated","div":"<div xmlns=\"http://www.w3.org/1999/xhtml\"><table width=\"100%\"><tbody><tr><th>Diagnosis name</th><td>Tonic-clonic seizure</td></tr></tbody></table><table width=\"100%\"><tbody><tr><th>Diagnosis name</th><td>Gastro-oesophageal reflux</td></tr></tbody></table><table width=\"100%\"><tbody><tr><th>Diagnosis name</th><td>Spastic quadriplegia</td></tr><tr><th>Comment</th><td>Secondary to birth asphyxia</td></tr></tbody></table><table width=\"100%\"><tbody><tr><th>Diagnosis name</th><td>Cortical visual impairment</td></tr></tbody></table><table width=\"100%\"><tbody><tr><th>Diagnosis name</th><td>Convergent squint</td></tr><tr><th>Comment</th><td>Bilateral convergent squint</td></tr></tbody></table><table width=\"100%\"><tbody><tr><th>Diagnosis name</th><td>Learning difficulties</td></tr></tbody></table></div>"},"entry":[{"reference":"urn:uuid:37c0854e-bba0-4785-908d-a18ec13bdd2e"}]},{"title":"Distribution list","code":{"coding":[{"system":"http://snomed.info/sct","code":"887261000000109","display":"Distribution list"}]},"text":{"status":"additional","div":"<div xmlns=\"http://www.w3.org/1999/xhtml\"><table width=\"100%\"><tbody><tr><th>Name</th><td><p>Prefix: Mrs</p><p>Given Name: Sally</p><p>Family Name: Jones</p></td></tr><tr><th>Relationship to subject</th><td>Patient's mother</td></tr></tbody></table><table width=\"100%\"><tbody><tr><th>Name</th><td><p>Prefix: Mr</p><p>Given Name: Ian</p><p>Family Name: Jones</p></td></tr><tr><th>Relationship to subject</th><td>Patient's father</td></tr></tbody></table><table width=\"100%\"><tbody><tr><th>Name</th><td><p>Prefix: Dr</p><p>Given Name: C</p><p>Family Name: O'Reilly</p></td></tr><tr><th>Role</th><td>General Medical Practitioner</td></tr><tr><th>Organisation name</th><td>Canvas Health Centre</td></tr></tbody></table><table width=\"100%\"><tbody><tr><th>Name</th><td><p>Prefix: Dr</p><p>Given Name: Charlotte</p><p>Family Name: Worth</p></td></tr><tr><th>Role</th><td>Consultant Orthopaedic physician</td></tr><tr><th>Organisation name</th><td>St. Crispin's Hospital</td></tr></tbody></table><table width=\"100%\"><tbody><tr><th>Name</th><td><p>Prefix: Mr</p><p>Given Name: Philip</p><p>Family Name: Brown</p></td></tr><tr><th>Role</th><td>Epilepsy nurse</td></tr><tr><th>Organisation name</th><td>St. Crispin's Hospital</td></tr></tbody></table></div>"},"entry":[{"reference":"urn:uuid:598a5239-fc65-46ed-94b2-9357ae08f6ef"},{"reference":"urn:uuid:4e42a3ef-6ba8-4fc4-954b-792e21539d32"},{"reference":"urn:uuid:9ef45ff1-d75c-4595-8812-1be366210688"},{"reference":"urn:uuid:2e1a0589-6c62-4592-84f2-8f845049d378"},{"reference":"urn:uuid:b6e1c220-5c50-4b9a-aec1-8a96927b44d9"}]},{"title":"Examination finding","code":{"coding":[{"system":"http://snomed.info/sct","code":"715851000000102","display":"Examination findings"}]},"text":{"status":"additional","div":"<div xmlns=\"http://www.w3.org/1999/xhtml\"><table width=\"100%\"><tbody><tr><th>Examination</th><td>Musculosketal system and nervous system</td></tr><tr><th>Examination findings</th><td>Mary's ankles both dorsiflex to 90 degrees. Her hips are very tight; the right hip only abducts to 30 degrees and the left hip to 45 degrees. The right hip has deteriorated.</td></tr></tbody></table><table width=\"100%\"><tbody><tr><th>Examination</th><td>Dental</td></tr><tr><th>Examination findings</th><td>No evidence of dental caries.</td></tr></tbody></table></div>"}},{"title":"GP practice","code":{"coding":[{"system":"http://snomed.info/sct","code":"886711000000101","display":"GP practice"}]},"text":{"status":"additional","div":"<div xmlns=\"http://www.w3.org/1999/xhtml\"><table width=\"100%\"><tbody><tr><th>GP name</th><td><p>Prefix: Dr</p><p>Given Name: C</p><p>Family Name: O'Reilly</p></td></tr><tr><th>GP practice details</th><td><p>Name: Canvas Health Centre</p><p>Address:</p><p>Address Line: 27, Acacia Road</p><p>Post Code: BM9 6PM</p></td></tr></tbody></table></div>"},"entry":[{"reference":"urn:uuid:48feca8e-92e9-45c1-afcf-1b4aabe72d0b"}]},{"title":"Medications and medical devices","code":{"coding":[{"system":"http://snomed.info/sct","code":"933361000000108","display":"Medications and medical devices"}]},"text":{"status":"additional","div":"<div xmlns=\"http://www.w3.org/1999/xhtml\"><table width=\"100%\"><tbody><tr><td style=\"width:100%\">(only changes to medications and medical devices as a result of the outpatient encounter are included)</td></tr></tbody></table><table width=\"100%\"><tbody><tr><th>Medication name</th><td>Lamotrigine 5mg dispersible tablets sugar free (A A H Pharmaceuticals Ltd)</td></tr><tr><th>Form</th><td>Dispersible tablet</td></tr><tr><th>Route</th><td>Gastroenteral</td></tr><tr><th>Dose directions description</th><td>Twice a day</td></tr><tr><th>Dose amount description</th><td>10mg</td></tr><tr><th>Comment/recommendation</th><td>14-day prescription provided, please provide a new prescription on parent's request.</td></tr><tr><th>Status</th><td>Amended</td></tr><tr><th>Indication</th><td>Increasing tonic-clonic convulsions</td></tr><tr><th>Date of latest change</th><td>01/05/2017</td></tr><tr><th>Description of amendment</th><td>Increase to 10mg twice daily. Total dose daily quantity: 20mg</td></tr></tbody></table></div>"},"entry":[{"reference":"urn:uuid:fed28a5f-233b-4800-ac0a-0929f1b5d3be"}]},{"title":"Patient demographics","code":{"coding":[{"system":"http://snomed.info/sct","code":"886731000000109","display":"Patient demographics"}]},"text":{"status":"additional","div":"<div xmlns=\"http://www.w3.org/1999/xhtml\"><table width=\"100%\"><tbody><tr><th>Patient name</th><td><p>Prefix: Miss</p><p>Given Name: Mary</p><p>Family Name: Jones</p></td></tr><tr><th>Date of birth</th><td>1 February 2013</td></tr><tr><th>Gender</th><td>Female</td></tr><tr><th>NHS number</th><td>1243523190</td></tr><tr><th>Other identifier</th><td>TL56945</td></tr><tr><th>Patient address</th><td><p>Address Line: 31, Acacia Road</p><p>Post Code: BM9 6PL</p></td></tr><tr><th>Relevant contacts</th><td>Sally and Ian Jones (parents) Email: sally@jones.net Tel: 077 1234 7777</td></tr><tr><th>Educational establishment</th><td>Greenacre School, Donaldstown DO5 6AA</td></tr></tbody></table></div>"},"entry":[{"reference":"urn:uuid:6c66c32f-655a-4b9c-9bb7-5ae31fc93010"}]},{"title":"Person completing record","code":{"coding":[{"system":"http://snomed.info/sct","code":"887231000000104","display":"Person completing record"}]},"text":{"status":"additional","div":"<div xmlns=\"http://www.w3.org/1999/xhtml\"><table width=\"100%\"><tbody><tr><th>Name</th><td><p>Prefix: Dr</p><p>Given Name: Arnold</p><p>Family Name: Rimmer</p></td></tr><tr><th>Role</th><td>Community paediatrician</td></tr><tr><th>Specialty</th><td>Paediatric speciality</td></tr><tr><th>Professional identifier</th><td>GMC: 6775556</td></tr><tr><th>Date and time completed</th><td>01 May 2017 16:42</td></tr><tr><th>Contact details</th><td>Tel: 01234 564563</td></tr></tbody></table></div>"},"entry":[{"reference":"urn:uuid:7ed1b03c-47f9-43c8-8dd2-675819cd8aee"}]},{"title":"Plan and requested actions","code":{"coding":[{"system":"http://snomed.info/sct","code":"887201000000105","display":"Plan and requested actions"}]},"text":{"status":"additional","div":"<div xmlns=\"http://www.w3.org/1999/xhtml\"><table width=\"100%\"><tbody><tr><th>Actions for healthcare professionals</th><td><p>Request to orthopaedics for early appointment for advice on deteriorating right hip</p><p>Person responsible: Dr. Arnold Rimmer, Community paediatrician 01/05/17</p><p>Status: Requested</p><br /><p>Letter of support to education regarding school transport</p><p>Person responsible: Dr. Arnold Rimmer, Community paediatrician 01/05/17</p><p>Status: Requested</p><br /><p>Review medication with Sally's mother by telephone in two weeks.</p><p>Person responsible: Phil Brown, Epilepsy nurse</p><p>Status: Planned</p><br /></td></tr><tr><th>Actions for patient or their carer</th><td>Mrs. Jones to contact epilepsy nurse on 01226 730000 if she has any concerns regarding convulsions and medical change.</td></tr></tbody></table></div>"}},{"title":"Problems and issues","code":{"coding":[{"system":"http://snomed.info/sct","code":"887151000000100","display":"Problems and issues"}]},"text":{"status":"additional","div":"<div xmlns=\"http://www.w3.org/1999/xhtml\"><table width=\"100%\"><tbody><tr><th>Problems and issues</th><td><p>Increased tonic-clonic convulsions</p><p>Problems with transport to school</p><p>Increasingly tight right hip</p></td></tr></tbody></table></div>"}},{"title":"Referrer details","code":{"coding":[{"system":"http://snomed.info/sct","code":"1052891000000108","display":"Referrer details"}]},"text":{"status":"generated","div":"<div xmlns=\"http://www.w3.org/1999/xhtml\"><table width=\"100%\"><tbody><tr><th>Referrer Name</th><td><p>Prefix: Dr</p><p>Given Name: C</p><p>Family Name: O'Reilly</p><p>Role: General Medical Practitioner</p><p>Tel: 01234 956412</p><p>Organisation Name: Canvas Health Centre</p><p>Address Line: 27 Acacia Road</p><p>Post Code: BM9 6PM</p></td></tr></tbody></table></div>"},"entry":[{"reference":"urn:uuid:598a5239-fc65-46ed-94b2-9357ae08f6ef"},{"reference":"urn:uuid:48feca8e-92e9-45c1-afcf-1b4aabe72d0b"}]},{"title":"Social context","code":{"coding":[{"system":"http://snomed.info/sct","code":"887051000000101","display":"Social context"}]},"text":{"status":"additional","div":"<div xmlns=\"http://www.w3.org/1999/xhtml\"><table width=\"100%\"><tbody><tr><th>Educational history</th></tr><tr><td>Mary started at Greenacre School in September. She enjoys it and the teachers are pleased with her progress.  Her mother has been bringing her to school by car but this is becoming an increasing problem as due to recent changes at work she now has to start at 8:30 AM. Unfortunately Mary is not eligible for free school transport until she is five years old. The home-school liaison teacher is trying to come to an agreement with the local authority to enable Mary to use school transport.  The teacher for visual impairment has seen her in school and recommended that she use large print books and a magnifying glass.</td></tr></tbody></table></div>"}}]}},{"fullUrl":"urn:uuid:4f36b35a-ad18-4ea9-a3fb-c893f709e88a","resource":{"resourceType":"Encounter","id":"4f36b35a-ad18-4ea9-a3fb-c893f709e88a","meta":{"profile":["https://fhir.nhs.uk/STU3/StructureDefinition/CareConnect-ITK-Encounter-1"]},"extension":[{"url":"https://fhir.hl7.org.uk/STU3/StructureDefinition/Extension-CareConnect-OutcomeOfAttendance-1","valueCodeableConcept":{"coding":[{"system":"https://fhir.hl7.org.uk/STU3/CodeSystem/CareConnect-OutcomeOfAttendance-1","code":"3","display":"Appointment to be made at a later date"}]}}],"identifier":[{"system":"https://tools.ietf.org/html/rfc4122","value":"13c73015-d8fa-4844-8d68-4f856883eca8"}],"status":"finished","class":{"system":"http://hl7.org/fhir/v3-ActEncounterCode","code":"AMB","display":"ambulatory"},"type":[{"coding":[{"system":"https://www.datadictionary.nhs.uk","code":"2","display":"Follow-up attendance face to face"}]}],"subject":{"reference":"urn:uuid:6c66c32f-655a-4b9c-9bb7-5ae31fc93010"},"participant":[{"type":[{"coding":[{"system":"http://hl7.org/fhir/v3/ParticipationType","code":"ATND","display":"attender"}]}],"individual":{"reference":"urn:uuid:7ed1b03c-47f9-43c8-8dd2-675819cd8aee"}},{"type":[{"coding":[{"system":"http://hl7.org/fhir/v3/ParticipationType","code":"PART","display":"Participation"}]}],"individual":{"reference":"urn:uuid:2e1a0589-6c62-4592-84f2-8f845049d378"}},{"type":[{"coding":[{"system":"http://hl7.org/fhir/v3/ParticipationType","code":"PART","display":"Participation"}]}],"individual":{"reference":"urn:uuid:49da7682-5117-424a-8e68-bd0e1d0aeefc"}},{"type":[{"coding":[{"system":"http://hl7.org/fhir/v3/ParticipationType","code":"PART","display":"Participation"}]}],"individual":{"reference":"urn:uuid:59177b7e-1b06-4081-910a-108880d8c1cc"}}],"period":{"start":"2017-05-01T10:00:00+00:00","end":"2017-05-01T11:00:00+00:00"}}},{"fullUrl":"urn:uuid:fffe7d77-70d0-41a7-8f48-185a58854dc2","resource":{"resourceType":"List","id":"fffe7d77-70d0-41a7-8f48-185a58854dc2","meta":{"profile":["https://fhir.nhs.uk/STU3/StructureDefinition/CareConnect-ITK-Allergy-List-1"]},"identifier":[{"system":"https://tools.ietf.org/html/rfc4122","value":"3d915cd2-830e-4bf1-a22b-0521d2e3e018"}],"status":"current","mode":"snapshot","code":{"coding":[{"system":"http://snomed.info/sct","code":"886921000000105","display":"Allergies and adverse reactions"}]},"subject":{"reference":"urn:uuid:6c66c32f-655a-4b9c-9bb7-5ae31fc93010"},"encounter":{"reference":"urn:uuid:4f36b35a-ad18-4ea9-a3fb-c893f709e88a"},"source":{"reference":"urn:uuid:7ed1b03c-47f9-43c8-8dd2-675819cd8aee"},"entry":[{"item":{"reference":"urn:uuid:b828d561-893f-4d30-9848-231ad18234dd"}}]}},{"fullUrl":"urn:uuid:b828d561-893f-4d30-9848-231ad18234dd","resource":{"resourceType":"AllergyIntolerance","id":"b828d561-893f-4d30-9848-231ad18234dd","meta":{"profile":["https://fhir.nhs.uk/STU3/StructureDefinition/CareConnect-ITK-AllergyIntolerance-1"]},"identifier":[{"system":"https://tools.ietf.org/html/rfc4122","value":"1ad3c375-6887-4717-a5eb-72624ff4aeb8"}],"clinicalStatus":"active","verificationStatus":"confirmed","code":{"coding":[{"system":"http://snomed.info/sct","code":"716186003","display":"No known allergy"}]},"patient":{"reference":"urn:uuid:6c66c32f-655a-4b9c-9bb7-5ae31fc93010"}}},{"fullUrl":"urn:uuid:37c0854e-bba0-4785-908d-a18ec13bdd2e","resource":{"resourceType":"List","id":"37c0854e-bba0-4785-908d-a18ec13bdd2e","meta":{"profile":["https://fhir.nhs.uk/STU3/StructureDefinition/CareConnect-ITK-Condition-List-1"]},"identifier":[{"system":"https://tools.ietf.org/html/rfc4122","value":"f284edb9-71e0-499a-bdc0-98f80b5dd5d3"}],"status":"current","mode":"snapshot","code":{"coding":[{"system":"http://snomed.info/sct","code":"887161000000102","display":"Diagnoses"}]},"subject":{"reference":"urn:uuid:6c66c32f-655a-4b9c-9bb7-5ae31fc93010"},"encounter":{"reference":"urn:uuid:4f36b35a-ad18-4ea9-a3fb-c893f709e88a"},"source":{"reference":"urn:uuid:7ed1b03c-47f9-43c8-8dd2-675819cd8aee"},"entry":[{"item":{"reference":"urn:uuid:8de990a9-8df5-492d-9e32-6516dccd8b07"}},{"item":{"reference":"urn:uuid:5678ec88-8bd0-4d8c-ae79-e0e1df2959a1"}},{"item":{"reference":"urn:uuid:8e602fc5-561b-4e67-ba72-7fd3a3cbd616"}},{"item":{"reference":"urn:uuid:2fd326cf-8aad-4590-aaf9-a2c1fcf9b1d0"}},{"item":{"reference":"urn:uuid:f0fcca33-d0b9-452c-bd3c-267454b05e8e"}},{"item":{"reference":"urn:uuid:5792a482-4718-46d6-9bc1-40475851a04f"}}]}},{"fullUrl":"urn:uuid:8de990a9-8df5-492d-9e32-6516dccd8b07","resource":{"resourceType":"Condition","id":"8de990a9-8df5-492d-9e32-6516dccd8b07","meta":{"profile":["https://fhir.nhs.uk/STU3/StructureDefinition/CareConnect-ITK-Condition-1"]},"identifier":[{"system":"https://tools.ietf.org/html/rfc4122","value":"2cd7ec7f-203e-4e20-90b5-08511d756a70"}],"clinicalStatus":"active","category":[{"coding":[{"system":"https://fhir.hl7.org.uk/STU3/CodeSystem/CareConnect-ConditionCategory-1","code":"encounter-diagnosis","display":"Encounter Diagnosis"}]}],"code":{"coding":[{"system":"http://snomed.info/sct","code":"54200006","display":"Tonic-clonic seizure"}]},"subject":{"reference":"urn:uuid:6c66c32f-655a-4b9c-9bb7-5ae31fc93010"},"context":{"reference":"urn:uuid:4f36b35a-ad18-4ea9-a3fb-c893f709e88a"}}},{"fullUrl":"urn:uuid:5678ec88-8bd0-4d8c-ae79-e0e1df2959a1","resource":{"resourceType":"Condition","id":"5678ec88-8bd0-4d8c-ae79-e0e1df2959a1","meta":{"profile":["https://fhir.nhs.uk/STU3/StructureDefinition/CareConnect-ITK-Condition-1"]},"identifier":[{"system":"https://tools.ietf.org/html/rfc4122","value":"62bafe75-b04b-452b-9c80-abc17f68b506"}],"clinicalStatus":"active","category":[{"coding":[{"system":"https://fhir.hl7.org.uk/STU3/CodeSystem/CareConnect-ConditionCategory-1","code":"encounter-diagnosis","display":"Encounter Diagnosis"}]}],"code":{"coding":[{"system":"http://snomed.info/sct","code":"235595009","display":"Gastro-oesophageal reflux"}]},"subject":{"reference":"urn:uuid:6c66c32f-655a-4b9c-9bb7-5ae31fc93010"},"context":{"reference":"urn:uuid:4f36b35a-ad18-4ea9-a3fb-c893f709e88a"}}},{"fullUrl":"urn:uuid:8e602fc5-561b-4e67-ba72-7fd3a3cbd616","resource":{"resourceType":"Condition","id":"8e602fc5-561b-4e67-ba72-7fd3a3cbd616","meta":{"profile":["https://fhir.nhs.uk/STU3/StructureDefinition/CareConnect-ITK-Condition-1"]},"identifier":[{"system":"https://tools.ietf.org/html/rfc4122","value":"0fdc410f-4dc0-4bce-b31c-7b36f1c49b4c"}],"clinicalStatus":"active","category":[{"coding":[{"system":"https://fhir.hl7.org.uk/STU3/CodeSystem/CareConnect-ConditionCategory-1","code":"encounter-diagnosis","display":"Encounter Diagnosis"}]}],"code":{"coding":[{"system":"http://snomed.info/sct","code":"192965001","display":"Spastic quadriplegia"}]},"subject":{"reference":"urn:uuid:6c66c32f-655a-4b9c-9bb7-5ae31fc93010"},"context":{"reference":"urn:uuid:4f36b35a-ad18-4ea9-a3fb-c893f709e88a"}}},{"fullUrl":"urn:uuid:2fd326cf-8aad-4590-aaf9-a2c1fcf9b1d0","resource":{"resourceType":"Condition","id":"2fd326cf-8aad-4590-aaf9-a2c1fcf9b1d0","meta":{"profile":["https://fhir.nhs.uk/STU3/StructureDefinition/CareConnect-ITK-Condition-1"]},"identifier":[{"system":"https://tools.ietf.org/html/rfc4122","value":"d26f3d0a-d52a-484f-b5d3-91ade32e9e65"}],"clinicalStatus":"active","category":[{"coding":[{"system":"https://fhir.hl7.org.uk/STU3/CodeSystem/CareConnect-ConditionCategory-1","code":"encounter-diagnosis","display":"Encounter Diagnosis"}]}],"code":{"coding":[{"system":"http://snomed.info/sct","code":"413924001","display":"Cortical visual impairment"}]},"subject":{"reference":"urn:uuid:6c66c32f-655a-4b9c-9bb7-5ae31fc93010"},"context":{"reference":"urn:uuid:4f36b35a-ad18-4ea9-a3fb-c893f709e88a"}}},{"fullUrl":"urn:uuid:f0fcca33-d0b9-452c-bd3c-267454b05e8e","resource":{"resourceType":"Condition","id":"f0fcca33-d0b9-452c-bd3c-267454b05e8e","meta":{"profile":["https://fhir.nhs.uk/STU3/StructureDefinition/CareConnect-ITK-Condition-1"]},"identifier":[{"system":"https://tools.ietf.org/html/rfc4122","value":"664a0a69-4313-40eb-b18b-33dd8f2ede63"}],"clinicalStatus":"active","category":[{"coding":[{"system":"https://fhir.hl7.org.uk/STU3/CodeSystem/CareConnect-ConditionCategory-1","code":"encounter-diagnosis","display":"Encounter Diagnosis"}]}],"code":{"coding":[{"system":"http://snomed.info/sct","code":"16596007","display":"Convergent squint"}]},"subject":{"reference":"urn:uuid:6c66c32f-655a-4b9c-9bb7-5ae31fc93010"},"context":{"reference":"urn:uuid:4f36b35a-ad18-4ea9-a3fb-c893f709e88a"}}},{"fullUrl":"urn:uuid:5792a482-4718-46d6-9bc1-40475851a04f","resource":{"resourceType":"Condition","id":"5792a482-4718-46d6-9bc1-40475851a04f","meta":{"profile":["https://fhir.nhs.uk/STU3/StructureDefinition/CareConnect-ITK-Condition-1"]},"identifier":[{"system":"https://tools.ietf.org/html/rfc4122","value":"06d7c266-efab-4084-a52b-977e0d56ddc9"}],"clinicalStatus":"active","category":[{"coding":[{"system":"https://fhir.hl7.org.uk/STU3/CodeSystem/CareConnect-ConditionCategory-1","code":"encounter-diagnosis","display":"Encounter Diagnosis"}]}],"code":{"coding":[{"system":"http://snomed.info/sct","code":"161129001","display":"Learning difficulties"}]},"subject":{"reference":"urn:uuid:6c66c32f-655a-4b9c-9bb7-5ae31fc93010"},"context":{"reference":"urn:uuid:4f36b35a-ad18-4ea9-a3fb-c893f709e88a"}}},{"fullUrl":"urn:uuid:fed28a5f-233b-4800-ac0a-0929f1b5d3be","resource":{"resourceType":"List","id":"fed28a5f-233b-4800-ac0a-0929f1b5d3be","meta":{"profile":["https://fhir.nhs.uk/STU3/StructureDefinition/CareConnect-ITK-Medication-List-1"]},"identifier":[{"system":"https://tools.ietf.org/html/rfc4122","value":"85c0a8c9-9fad-40b7-99c2-0d693e29c9bc"}],"status":"current","mode":"snapshot","code":{"coding":[{"system":"http://snomed.info/sct","code":"1102411000000102","display":"Active medications"}]},"subject":{"reference":"urn:uuid:6c66c32f-655a-4b9c-9bb7-5ae31fc93010"},"encounter":{"reference":"urn:uuid:4f36b35a-ad18-4ea9-a3fb-c893f709e88a"},"source":{"reference":"urn:uuid:7ed1b03c-47f9-43c8-8dd2-675819cd8aee"},"entry":[{"item":{"reference":"urn:uuid:d112c28e-f106-4d68-bcbc-141b0872fbf4"}}]}},{"fullUrl":"urn:uuid:d112c28e-f106-4d68-bcbc-141b0872fbf4","resource":{"resourceType":"MedicationStatement","id":"d112c28e-f106-4d68-bcbc-141b0872fbf4","meta":{"profile":["https://fhir.nhs.uk/STU3/StructureDefinition/CareConnect-ITK-MedicationStatement-1"]},"extension":[{"url":"https://fhir.hl7.org.uk/STU3/StructureDefinition/Extension-CareConnect-MedicationChangeSummary-1","extension":[{"url":"status","valueCode":"Amended"},{"url":"indicationForChange","valueCodeableConcept":{"text":"Increasing tonic-clonic convulsions"}},{"url":"dateChanged","valueDateTime":"2017-05-01"},{"url":"detailsOfAmendment","valueString":"Increase to 10mg twice daily. Total dose daily quantity: 20mg"}]}],"status":"active","medicationReference":{"reference":"urn:uuid:153229fd-4e32-4351-87c0-293253e5c4ea"},"subject":{"reference":"urn:uuid:6c66c32f-655a-4b9c-9bb7-5ae31fc93010"},"taken":"y","dosage":[{"text":"10mg twice a day.","route":{"coding":[{"system":"http://snomed.info/sct","code":"372454008","display":"Gastroenteral"}]}}]}},{"fullUrl":"urn:uuid:153229fd-4e32-4351-87c0-293253e5c4ea","resource":{"resourceType":"Medication","id":"153229fd-4e32-4351-87c0-293253e5c4ea","meta":{"profile":["https://fhir.nhs.uk/STU3/StructureDefinition/CareConnect-ITK-Medication-1"]},"code":{"coding":[{"system":"http://snomed.info/sct","code":"9458411000001102","display":"Lamotrigine 5mg dispersible tablets sugar free (A A H Pharmaceuticals Ltd)"}]},"form":{"coding":[{"system":"http://snomed.info/sct","code":"421366001","display":"Dispersible tablet"}]}}},{"fullUrl":"urn:uuid:6c66c32f-655a-4b9c-9bb7-5ae31fc93010","resource":{"resourceType":"Patient","id":"6c66c32f-655a-4b9c-9bb7-5ae31fc93010","meta":{"profile":["https://fhir.hl7.org.uk/STU3/StructureDefinition/CareConnect-Patient-1"]},"identifier":[{"extension":[{"url":"https://fhir.hl7.org.uk/STU3/StructureDefinition/Extension-CareConnect-NHSNumberVerificationStatus-1","valueCodeableConcept":{"coding":[{"system":"https://fhir.hl7.org.uk/STU3/CodeSystem/CareConnect-NHSNumberVerificationStatus-1","code":"01","display":"Number present and verified"}]}}],"system":"https://fhir.nhs.uk/Id/nhs-number","value":"1243523190"},{"system":"https://fhir.nhs.uk/Id/local-patient-identifier","value":"TL56945"}],"active":true,"name":[{"use":"official","family":"Jones","given":["Mary"],"prefix":["Miss"]}],"gender":"female","birthDate":"2013-02-01","address":[{"use":"home","line":["31 Acacia Road"],"postalCode":"BM9 6PL"}]}},{"fullUrl":"urn:uuid:2e1a0589-6c62-4592-84f2-8f845049d378","resource":{"resourceType":"RelatedPerson","id":"2e1a0589-6c62-4592-84f2-8f845049d378","meta":{"profile":["https://fhir.nhs.uk/STU3/StructureDefinition/ITK-RelatedPerson-1"]},"patient":{"reference":"urn:uuid:6c66c32f-655a-4b9c-9bb7-5ae31fc93010"},"relationship":{"coding":[{"system":"http://hl7.org/fhir/v3/RoleCode","code":"MTH","display":"mother"}]},"name":[{"use":"official","family":"Jones","given":["Sally"]}],"telecom":[{"system":"phone","value":"077 1234 7777","use":"mobile"},{"system":"email","value":"sally@jones.net"}]}},{"fullUrl":"urn:uuid:b6e1c220-5c50-4b9a-aec1-8a96927b44d9","resource":{"resourceType":"RelatedPerson","id":"b6e1c220-5c50-4b9a-aec1-8a96927b44d9","meta":{"profile":["https://fhir.nhs.uk/STU3/StructureDefinition/ITK-RelatedPerson-1"]},"patient":{"reference":"urn:uuid:6c66c32f-655a-4b9c-9bb7-5ae31fc93010"},"relationship":{"coding":[{"system":"http://hl7.org/fhir/v3/RoleCode","code":"FTH","display":"father"}]},"name":[{"use":"official","family":"Jones","given":["Ian"]}],"telecom":[{"system":"phone","value":"077 1234 7777","use":"mobile"},{"system":"email","value":"sally@jones.net"}]}},{"fullUrl":"urn:uuid:7ed1b03c-47f9-43c8-8dd2-675819cd8aee","resource":{"resourceType":"Practitioner","id":"7ed1b03c-47f9-43c8-8dd2-675819cd8aee","meta":{"profile":["https://fhir.hl7.org.uk/STU3/StructureDefinition/CareConnect-Practitioner-1"]},"identifier":[{"system":"https://fhir.hl7.org.uk/Id/gmc-number","value":"6775556"}],"name":[{"family":"Arnold","given":["Rimmer"],"prefix":["Dr"]}],"telecom":[{"system":"phone","value":"01234 564563","use":"work"},{"system":"email","value":"cpc@nhs.uk","use":"work"}],"address":[{"use":"work","line":["Community Paediatric Clinic, Adobe Health Centre"],"city":"Donaldstown","postalCode":"DO1 4XP"}]}},{"fullUrl":"urn:uuid:598a5239-fc65-46ed-94b2-9357ae08f6ef","resource":{"resourceType":"Practitioner","id":"598a5239-fc65-46ed-94b2-9357ae08f6ef","meta":{"profile":["https://fhir.hl7.org.uk/STU3/StructureDefinition/CareConnect-Practitioner-1"]},"identifier":[{"system":"https://fhir.nhs.uk/Id/local-practitioner-identifier","value":"8122472"}],"name":[{"family":"O'Reilly","given":["C"],"prefix":["Dr"]}],"telecom":[{"system":"phone","value":"01234 956412","use":"work"}]}},{"fullUrl":"urn:uuid:4e42a3ef-6ba8-4fc4-954b-792e21539d32","resource":{"resourceType":"Practitioner","id":"4e42a3ef-6ba8-4fc4-954b-792e21539d32","meta":{"profile":["https://fhir.hl7.org.uk/STU3/StructureDefinition/CareConnect-Practitioner-1"]},"identifier":[{"system":"https://fhir.nhs.uk/Id/local-practitioner-identifier","value":"3122472"}],"name":[{"family":"Charlotte","given":["Worth"],"prefix":["Dr"]}]}},{"fullUrl":"urn:uuid:9ef45ff1-d75c-4595-8812-1be366210688","resource":{"resourceType":"Practitioner","id":"9ef45ff1-d75c-4595-8812-1be366210688","meta":{"profile":["https://fhir.hl7.org.uk/STU3/StructureDefinition/CareConnect-Practitioner-1"]},"identifier":[{"system":"https://fhir.nhs.uk/Id/sds-user-id","value":"033345750526"}],"name":[{"family":"Brown","given":["Philip"],"prefix":["Mr"]}]}},{"fullUrl":"urn:uuid:49da7682-5117-424a-8e68-bd0e1d0aeefc","resource":{"resourceType":"Practitioner","id":"49da7682-5117-424a-8e68-bd0e1d0aeefc","meta":{"profile":["https://fhir.hl7.org.uk/STU3/StructureDefinition/CareConnect-Practitioner-1"]},"name":[{"family":"White","given":["Jenny"],"prefix":["Mrs"]}]}},{"fullUrl":"urn:uuid:59177b7e-1b06-4081-910a-108880d8c1cc","resource":{"resourceType":"Practitioner","id":"59177b7e-1b06-4081-910a-108880d8c1cc","meta":{"profile":["https://fhir.hl7.org.uk/STU3/StructureDefinition/CareConnect-Practitioner-1"]},"name":[{"family":"Hall","given":["Sarah"],"prefix":["Mrs"]}]}},{"fullUrl":"urn:uuid:1d84c93b-df78-4443-9181-a400ad31200a","resource":{"resourceType":"PractitionerRole","id":"1d84c93b-df78-4443-9181-a400ad31200a","meta":{"profile":["https://fhir.hl7.org.uk/STU3/StructureDefinition/CareConnect-PractitionerRole-1"]},"practitioner":{"reference":"urn:uuid:7ed1b03c-47f9-43c8-8dd2-675819cd8aee"},"organization":{"reference":"urn:uuid:f725c91c-e4c2-43f2-b92e-0cba8deb9687"},"code":[{"coding":[{"system":"http://snomed.info/sct","code":"309329001","display":"Community paediatrician"}]}],"specialty":[{"coding":[{"system":"http://snomed.info/sct","code":"394537008","display":"Paediatric speciality"}]}]}},{"fullUrl":"urn:uuid:e7847e37-1f84-4741-8257-eeafdb90d053","resource":{"resourceType":"PractitionerRole","id":"e7847e37-1f84-4741-8257-eeafdb90d053","meta":{"profile":["https://fhir.hl7.org.uk/STU3/StructureDefinition/CareConnect-PractitionerRole-1"]},"practitioner":{"reference":"urn:uuid:598a5239-fc65-46ed-94b2-9357ae08f6ef"},"organization":{"reference":"urn:uuid:48feca8e-92e9-45c1-afcf-1b4aabe72d0b"},"code":[{"coding":[{"system":"https://fhir.hl7.org.uk/STU3/CodeSystem/CareConnect-SDSJobRoleName-1","code":"R0260","display":"General Medical Practitioner"}]}]}},{"fullUrl":"urn:uuid:18314133-a39e-47ae-8984-8710993f0b1d","resource":{"resourceType":"PractitionerRole","id":"18314133-a39e-47ae-8984-8710993f0b1d","meta":{"profile":["https://fhir.hl7.org.uk/STU3/StructureDefinition/CareConnect-PractitionerRole-1"]},"practitioner":{"reference":"urn:uuid:4e42a3ef-6ba8-4fc4-954b-792e21539d32"},"organization":{"reference":"urn:uuid:f8d005f7-3b9d-4fad-a33e-8e87a4897433"},"code":[{"coding":[{"system":"https://fhir.nhs.uk/STU3/CodeSystem/CareConnect-SDSJobRoleName-1","code":"R0050","display":"Consultant"}]}],"specialty":[{"coding":[{"system":"http://snomed.info/sct","code":"394801008","display":"Trauma &orthopaedics"}]}]}},{"fullUrl":"urn:uuid:13b7fffc-308d-4df2-aa9d-3998ab75eee8","resource":{"resourceType":"PractitionerRole","id":"13b7fffc-308d-4df2-aa9d-3998ab75eee8","meta":{"profile":["https://fhir.hl7.org.uk/STU3/StructureDefinition/CareConnect-PractitionerRole-1"]},"practitioner":{"reference":"urn:uuid:9ef45ff1-d75c-4595-8812-1be366210688"},"organization":{"reference":"urn:uuid:f8d005f7-3b9d-4fad-a33e-8e87a4897433"}}},{"fullUrl":"urn:uuid:46cfafd3-92dd-4412-825b-4ae36303aff9","resource":{"resourceType":"PractitionerRole","id":"46cfafd3-92dd-4412-825b-4ae36303aff9","meta":{"profile":["https://fhir.hl7.org.uk/STU3/StructureDefinition/CareConnect-PractitionerRole-1"]},"practitioner":{"reference":"urn:uuid:49da7682-5117-424a-8e68-bd0e1d0aeefc"},"code":[{"coding":[{"system":"https://fhir.hl7.org.uk/STU3/CodeSystem/CareConnect-SDSJobRoleName-1","code":"R0950","display":"Occupational Therapist"}]}]}},{"fullUrl":"urn:uuid:8957f3e0-dd1b-45bc-8a20-b4eee02db4d3","resource":{"resourceType":"PractitionerRole","id":"8957f3e0-dd1b-45bc-8a20-b4eee02db4d3","meta":{"profile":["https://fhir.hl7.org.uk/STU3/StructureDefinition/CareConnect-PractitionerRole-1"]},"practitioner":{"reference":"urn:uuid:59177b7e-1b06-4081-910a-108880d8c1cc"},"code":[{"coding":[{"system":"https://fhir.hl7.org.uk/STU3/CodeSystem/CareConnect-SDSJobRoleName-1","code":"R1480","display":"Healthcare Assistant"}]}]}},{"fullUrl":"urn:uuid:48feca8e-92e9-45c1-afcf-1b4aabe72d0b","resource":{"resourceType":"Organization","id":"48feca8e-92e9-45c1-afcf-1b4aabe72d0b","meta":{"profile":["https://fhir.hl7.org.uk/STU3/StructureDefinition/CareConnect-Organization-1"]},"identifier":[{"system":"https://fhir.nhs.uk/Id/ods-organization-code","value":"A111111"}],"name":"Canvas Health Centre","telecom":[{"system":"phone","value":"01234 956412","use":"work"}],"address":[{"use":"work","line":["27 Acacia Road","BM9 6PM"]}]}},{"fullUrl":"urn:uuid:f725c91c-e4c2-43f2-b92e-0cba8deb9687","resource":{"resourceType":"Organization","id":"f725c91c-e4c2-43f2-b92e-0cba8deb9687","meta":{"profile":["https://fhir.hl7.org.uk/STU3/StructureDefinition/CareConnect-Organization-1"]},"name":"Community Paediatrics Department","telecom":[{"system":"phone","value":"01234 567890","use":"work"},{"system":"email","value":"cpc@nhs.uk","use":"work"}],"address":[{"use":"work","line":["Adobe Health Centre"],"city":"Donaldstown","postalCode":"DO1 4XP"}]}},{"fullUrl":"urn:uuid:f8d005f7-3b9d-4fad-a33e-8e87a4897433","resource":{"resourceType":"Organization","id":"f8d005f7-3b9d-4fad-a33e-8e87a4897433","meta":{"profile":["https://fhir.hl7.org.uk/STU3/StructureDefinition/CareConnect-Organization-1"]},"identifier":[{"system":"https://fhir.nhs.uk/Id/ods-organization-code","value":"RX0000"}],"name":"St Crispin's Hospital","address":[{"city":"Donaldstown","postalCode":"DO5 7TP"}]}}]}