{"resourceType":"Bundle","id":"56cda0f0-d663-482c-944d-0ff8bf804d46","meta":{"lastUpdated":"2017-05-01T18:42:00+00:00","profile":["https://fhir.nhs.uk/STU3/StructureDefinition/ITK-Document-Bundle-1"]},"identifier":{"system":"https://tools.ietf.org/html/rfc4122","value":"fc09b056-a869-41c3-ad7b-b2074c3d97b6"},"type":"document","entry":[{"fullUrl":"urn:uuid:17e783b1-8fe0-4846-957e-e3ada2559762","resource":{"resourceType":"Composition","id":"17e783b1-8fe0-4846-957e-e3ada2559762","meta":{"profile":["https://fhir.nhs.uk/STU3/StructureDefinition/CareConnect-ITK-OPL-Composition-1"]},"extension":[{"url":"https://fhir.hl7.org.uk/STU3/StructureDefinition/Extension-CareConnect-CareSettingType-1","valueCodeableConcept":{"coding":[{"system":"http://snomed.info/sct","code":"700433006","display":"Gastroenterology service"}]}}],"identifier":{"system":"https://tools.ietf.org/html/rfc4122","value":"88f3e08a-4f29-4132-80dd-ce41a2efb2da"},"status":"final","type":{"coding":[{"system":"http://snomed.info/sct","code":"823681000000100","display":"Outpatient letter"}]},"subject":{"reference":"urn:uuid:29995d4a-1ba7-404d-b161-86670848675b"},"encounter":{"reference":"urn:uuid:a7b5ce52-314f-4b82-a131-6ab90d435d30"},"date":"2017-05-01T16:42:00+00:00","author":[{"reference":"urn:uuid:c945c0a4-d63b-4cda-9299-12fe20524adc"}],"title":"Gastroenterology Service Outpatient Letter","custodian":{"reference":"urn:uuid:3e31975f-1460-4fc0-8beb-b26191d1c152"},"section":[{"title":"Allergies and adverse reactions","code":{"coding":[{"system":"http://snomed.info/sct","code":"886921000000105","display":"Allergies and adverse reactions"}]},"text":{"status":"additional","div":"<div xmlns=\"http://www.w3.org/1999/xhtml\"><table width=\"100%\"><tbody><tr><th>Causative agent</th><td>Amoxicillin</td></tr><tr><th>Description of reaction</th><td>Urticarial rash in the form of a generalised severe rash</td></tr><tr><th>Date first experienced</th><td>She first experienced a reaction aged 12.</td></tr></tbody></table></div>"},"entry":[{"reference":"urn:uuid:627bd799-7a86-40bd-a931-d8526b412fa5"}]},{"title":"Attendance details","code":{"coding":[{"system":"http://snomed.info/sct","code":"1077881000000105","display":"Attendance details"}]},"text":{"status":"additional","div":"<div xmlns=\"http://www.w3.org/1999/xhtml\"><table width=\"100%\"><tbody><tr><td colspan=\"2\" style=\"width:100%\">Dear Dr. O'Reilly, <br />Thank you for referring \r\n\t  Ms. Critchard to the gastroenterology outpatient clinic.<br /></td></tr><tr><th>Date and time of contact</th><td>01 May 2017 12:00</td></tr><tr><th>Contact type</th><td>First attendance face to face</td></tr><tr><th>Consultation method</th><td>Face-to-face</td></tr><tr><th>Responsible healthcare professional</th><td>Dr. Ruth Jones (Consultant Gastroenterologist)</td></tr><tr><th>Specialty</th><td>Gastroenterology</td></tr><tr><th>Service</th><td>Gastroenterology service</td></tr><tr><th>Seen by</th><td><p>Prefix: Dr</p><p>Given Name: Ruth</p><p>Family Name: Jones</p><p>Role: Consultant Gastroenterologist</p><p>Tel: 01234 562170 (Work)</p></td></tr><tr><th>Care professionals present</th><td><p>Prefix: Mrs</p><p>Given Name: N</p><p>Family Name: Bryant</p><p>Role: IBD Specialist Nurse</p></td></tr><tr><th>Outcome of outpatient attendance</th><td>Appointment to be made at a later date</td></tr></tbody></table></div>"},"entry":[{"reference":"urn:uuid:a7b5ce52-314f-4b82-a131-6ab90d435d30"}]},{"title":"Clinical summary","code":{"coding":[{"system":"http://snomed.info/sct","code":"887181000000106","display":"Clinical summary"}]},"text":{"status":"additional","div":"<div xmlns=\"http://www.w3.org/1999/xhtml\"><table width=\"100%\"><tbody><tr><th>Clinical summary</th></tr><tr><td>Findings are suggestive of IBD. Rigid sigmoidoscopy looks like UC. \r\n\t  5ASA treatment commenced today pending further investigation.</td></tr></tbody></table></div>"}},{"title":"Diagnoses","code":{"coding":[{"system":"http://snomed.info/sct","code":"887161000000102","display":"Diagnoses"}]},"text":{"status":"additional","div":"<div xmlns=\"http://www.w3.org/1999/xhtml\"><table width=\"100%\"><tbody><tr><th>Diagnosis name</th><td>Proctitis</td></tr></tbody></table><table width=\"100%\"><tbody><tr><th>Diagnosis name</th><td>Dyspepsia</td></tr><tr><th>Comment</th><td>Ms. Critchard has longstanding mild dyspepsia for which \r\n\t  she takes antacid as necessary. It has never been investigated.</td></tr></tbody></table></div>"},"entry":[{"reference":"urn:uuid:ea41d09b-8c90-4856-9955-4d318ee890e99"}]},{"title":"Distribution list","code":{"coding":[{"system":"http://snomed.info/sct","code":"887261000000109","display":"Distribution list"}]},"text":{"status":"additional","div":"<div xmlns=\"http://www.w3.org/1999/xhtml\"><table width=\"100%\"><tbody><tr><th>Name</th><td><p>Prefix: Dr</p><p>Given Name: C</p><p>Family Name: O'Reilly</p></td></tr><tr><th>Role</th><td>General Medical Practitioner</td></tr><tr><th>Organisation name</th><td>Canvas Health Centre</td></tr></tbody></table><table width=\"100%\"><tbody><tr><th>Name</th><td><p>Prefix: Ms</p><p>Given Name: Agatha</p><p>Family Name: Critchard</p></td></tr></tbody></table></div>"},"entry":[{"reference":"urn:uuid:137bc838-e3ab-4eb2-99e9-32b0c02e70eb"},{"reference":"urn:uuid:29995d4a-1ba7-404d-b161-86670848675b"}]},{"title":"Examination finding","code":{"coding":[{"system":"http://snomed.info/sct","code":"715851000000102","display":"Examination findings"}]},"text":{"status":"additional","div":"<div xmlns=\"http://www.w3.org/1999/xhtml\"><table width=\"100%\"><tbody><tr><th>Examination findings</th></tr><tr><td>The abdomen was found to be soft but mainly tender in the left iliac fossa. \r\n\t  There was no guarding or rebound and bowel sounds normal.</td></tr></tbody></table></div>"}},{"title":"Family history","code":{"coding":[{"system":"http://snomed.info/sct","code":"887111000000104","display":"Family history"}]},"text":{"status":"additional","div":"<div xmlns=\"http://www.w3.org/1999/xhtml\"><table width=\"100%\"><tbody><tr><th>Family history</th></tr><tr><td>Ms. Critchard has no family history of I.B.D. </td></tr></tbody></table></div>"}},{"title":"GP practice","code":{"coding":[{"system":"http://snomed.info/sct","code":"886711000000101","display":"GP practice"}]},"text":{"status":"additional","div":"<div xmlns=\"http://www.w3.org/1999/xhtml\"><table width=\"100%\"><tbody><tr><th>GP name</th><td><p>Prefix: Dr</p><p>Given Name: C</p><p>Family Name: O'Reilly</p></td></tr><tr><th>GP practice details</th><td><p>Name: Canvas Health Centre</p><p>Address:</p><p>Address Line: 27, Acacia Road</p><p>Post Code: BM9 6PM</p></td></tr></tbody></table></div>"},"entry":[{"reference":"urn:uuid:00e2ec13-891d-4335-b383-5bb6043331db"}]},{"title":"History","code":{"coding":[{"system":"http://snomed.info/sct","code":"717121000000105","display":"History"}]},"text":{"status":"additional","div":"<div xmlns=\"http://www.w3.org/1999/xhtml\"><table width=\"100%\"><tbody><tr><th>History of each presenting complaint or issue</th><td>Ms. Critchard presents with ongoing symptoms of bloody diarrhoea, weight loss, \r\n\t\t\t\t\t\t\t\t\t\tand abdominal discomfort that are unresponsive to treatment. \r\n\t\t\t\t\t\t\t\t\t\tShe has a 2 month history of bloody diarrhoea. Her bowels open 5-6 per day with 1-2 nocturnal episodes. \r\n\t\t\t\t\t\t\t\t\t\tMs. Critchard has experienced weight loss of 1 stone over the same period. \r\n\t\t\t\t\t\t\t\t\t\tShe experiences a crampy left iliac fossa pain intermittently.\r\nShe has no history of travel, unwell contacts or previous similar symptoms. \r\nShe has longstanding mild dyspepsia for which she takes antacid as necessary. It has never been investigated.</td></tr></tbody></table></div>"}},{"title":"Investigation results","code":{"coding":[{"system":"http://snomed.info/sct","code":"1082101000000102","display":"Investigation results"}]},"text":{"status":"additional","div":"<div xmlns=\"http://www.w3.org/1999/xhtml\"><table width=\"100%\"><tbody><tr><th>Investigation result</th></tr><tr><td>Facael calprotein levels were 247mcg/g faeces (normal less than 50)</td></tr></tbody></table></div>"}},{"title":"Medications and medical devices","code":{"coding":[{"system":"http://snomed.info/sct","code":"933361000000108","display":"Medications and medical devices"}]},"text":{"status":"additional","div":"<div xmlns=\"http://www.w3.org/1999/xhtml\"><table width=\"100%\"><tbody><tr><td style=\"width:100%\">(only changes to medications and medical devices as a \r\n\t  result of the outpatient encounter are included)</td></tr></tbody></table><table width=\"100%\"><tbody><tr><th>Medication name</th><td>Asacol 800mg MR gastro-resistant tablets (Allergan Ltd)</td></tr><tr><th>Form</th><td>Gastro-resistant oral tablet</td></tr><tr><th>Route</th><td>Oral</td></tr><tr><th>Dose amount description</th><td>3 x 800mg</td></tr><tr><th>Dose timing description</th><td>Once a day</td></tr><tr><th>Additional instruction</th><td>To be taken one hour before bed.</td></tr><tr><th>Start date/time</th><td>11/05/17</td></tr><tr><th>End date/time</th><td>Ongoing</td></tr><tr><th>Indication</th><td>Treat symptoms</td></tr><tr><th>Comment/recommendation</th><td>A 14xday course was prescribed in clinic, \r\n\t  please renew in 2xweeks time.</td></tr><tr><th>Status</th><td>Added</td></tr></tbody></table></div>"},"entry":[{"reference":"urn:uuid:9788d750-dda9-4c73-b9d5-c08ac2d603fe"}]},{"title":"Patient demographics","code":{"coding":[{"system":"http://snomed.info/sct","code":"886731000000109","display":"Patient demographics"}]},"text":{"status":"generated","div":"<div xmlns=\"http://www.w3.org/1999/xhtml\"><table width=\"100%\"><tbody><tr><th>Patient name</th><td><p>Prefix: Ms</p><p>Given Name: Agatha</p><p>Family Name: Critchard</p></td></tr><tr><th>Date of birth</th><td>1 February 1964</td></tr><tr><th>Gender</th><td>Female</td></tr><tr><th>NHS number</th><td>1243567890</td></tr><tr><th>Other identifier</th><td>TL89765</td></tr><tr><th>Patient address</th><td><p>Address Line: 30, Acacia Road</p><p>Post Code: BM9 6PL</p></td></tr><tr><th>Patient email address</th><td>frances@delatour.net</td></tr><tr><th>Patient telephone number</th><td>Mobile: 077 1234 7777</td></tr></tbody></table></div>"},"entry":[{"reference":"urn:uuid:29995d4a-1ba7-404d-b161-86670848675b"}]},{"title":"Person completing record","code":{"coding":[{"system":"http://snomed.info/sct","code":"887231000000104","display":"Person completing record"}]},"text":{"status":"additional","div":"<div xmlns=\"http://www.w3.org/1999/xhtml\"><table width=\"100%\"><tbody><tr><th>Name</th><td><p>Prefix: Dr</p><p>Given Name: Ruth</p><p>Family Name: Jones</p></td></tr><tr><th>Role</th><td>Consultant Gastroenterologist</td></tr><tr><th>Specialty</th><td>Gastroenterology</td></tr><tr><th>Professional identifier</th><td>GMC: 6775555</td></tr><tr><th>Date and time completed</th><td>01 May 2017 16:42</td></tr><tr><th>Contact details</th><td>Tel: 01234 562170</td></tr></tbody></table></div>"},"entry":[{"reference":"urn:uuid:c945c0a4-d63b-4cda-9299-12fe20524adc"}]},{"title":"Plan and requested actions","code":{"coding":[{"system":"http://snomed.info/sct","code":"887201000000105","display":"Plan and requested actions"}]},"text":{"status":"additional","div":"<div xmlns=\"http://www.w3.org/1999/xhtml\"><table width=\"100%\"><tbody><tr><th>Actions for healthcare professionals</th><td>A flexible sigmoidoscopy has been requested on an urgent basis by Ruth Jones on 01/05/17. \r\n\t  FBC, U and E, LFT and CRP are to be measured, the patient was \r\n\t  provided with a form at the appointment. Stool MC and S plus C. diff are to be taken, \r\n\t  the patient was given forms and collection points at the appointment.</td></tr></tbody></table></div>"}},{"title":"Problems and issues","code":{"coding":[{"system":"http://snomed.info/sct","code":"887151000000100","display":"Problems and issues"}]},"text":{"status":"additional","div":"<div xmlns=\"http://www.w3.org/1999/xhtml\"><table width=\"100%\"><tbody><tr><th>Problems and issues</th><td><p>Bloody diarrhoea</p><p>Weight loss</p></td></tr></tbody></table></div>"}},{"title":"Procedures","code":{"coding":[{"system":"http://snomed.info/sct","code":"887171000000109","display":"Procedures"}]},"text":{"status":"additional","div":"<div xmlns=\"http://www.w3.org/1999/xhtml\"><table width=\"100%\"><tbody><tr><th>Procedure name</th><td>Rigid sigmoidoscopy</td></tr><tr><th>Comment</th><td>Performed to the \r\n\t  limit of view at 20cm. It showed inflamed and ulcerated mucosa with contact \r\n\t  bleeding to about 15cm. Proximally appears to improve.</td></tr></tbody></table></div>"},"entry":[{"reference":"urn:uuid:aca5e99f-702c-49cb-b162-173d4f5d7fe5"}]},{"title":"Referrer details","code":{"coding":[{"system":"http://snomed.info/sct","code":"1052891000000108","display":"Referrer details"}]},"text":{"status":"generated","div":"<div xmlns=\"http://www.w3.org/1999/xhtml\"><table width=\"100%\"><tbody><tr><th>Referrer Name</th><td><p>Prefix: Dr</p><p>Given Name: C</p><p>Family Name: O'Reilly</p><p>Role: General Medical Practitioner</p><p>Tel: 01234 956412</p><p>Organisation Name: Canvas Health Centre</p><p>Address Line: 27 Acacia Road</p><p>Post Code: BM9 6PM</p></td></tr></tbody></table></div>"},"entry":[{"reference":"urn:uuid:137bc838-e3ab-4eb2-99e9-32b0c02e70eb"},{"reference":"urn:uuid:00e2ec13-891d-4335-b383-5bb6043331db"}]},{"title":"Social context","code":{"coding":[{"system":"http://snomed.info/sct","code":"887051000000101","display":"Social context"}]},"text":{"status":"additional","div":"<div xmlns=\"http://www.w3.org/1999/xhtml\"><table width=\"100%\"><tbody><tr><th>Household composition</th><td>Ms. Critchard lives with her boyfriend.</td></tr><tr><th>Occupational history</th><td>Baker</td></tr><tr><th>Smoking</th><td>Ex-smoker, stopped 2 years</td></tr><tr><th>Alcohol intake</th><td>10-14 units of alcohol per week.</td></tr></tbody></table></div>"}}]}},{"fullUrl":"urn:uuid:a7b5ce52-314f-4b82-a131-6ab90d435d30","resource":{"resourceType":"Encounter","id":"a7b5ce52-314f-4b82-a131-6ab90d435d30","meta":{"profile":["https://fhir.nhs.uk/STU3/StructureDefinition/CareConnect-ITK-Encounter-1"]},"extension":[{"url":"https://fhir.hl7.org.uk/STU3/StructureDefinition/Extension-CareConnect-OutcomeOfAttendance-1","valueCodeableConcept":{"coding":[{"system":"https://fhir.hl7.org.uk/STU3/CodeSystem/CareConnect-OutcomeOfAttendance-1","code":"3","display":"Appointment to be made at a later date"}]}}],"identifier":[{"system":"https://tools.ietf.org/html/rfc4122","value":"85e88b9f-c6be-4d09-ae48-f4fa6687903d"}],"status":"finished","class":{"system":"http://hl7.org/fhir/v3-ActEncounterCode","code":"AMB","display":"ambulatory"},"type":[{"coding":[{"system":"https://www.datadictionary.nhs.uk","code":"1","display":"First attendance face to face"}]}],"subject":{"reference":"urn:uuid:29995d4a-1ba7-404d-b161-86670848675b"},"participant":[{"type":[{"coding":[{"system":"http://hl7.org/fhir/v3/ParticipationType","code":"ATND","display":"attender"}]}],"individual":{"reference":"urn:uuid:c945c0a4-d63b-4cda-9299-12fe20524adc"}},{"type":[{"coding":[{"system":"http://hl7.org/fhir/v3/ParticipationType","code":"SPRF","display":"secondary performer"}]}],"individual":{"reference":"urn:uuid:8ece9986-9af0-4882-b0cf-23a96ea7b509"}}],"period":{"start":"2017-05-01T12:00:00+00:00","end":"2017-05-01T13:00:00+00:00"}}},{"fullUrl":"urn:uuid:627bd799-7a86-40bd-a931-d8526b412fa5","resource":{"resourceType":"List","id":"627bd799-7a86-40bd-a931-d8526b412fa5","meta":{"profile":["https://fhir.nhs.uk/STU3/StructureDefinition/CareConnect-ITK-Allergy-List-1"]},"identifier":[{"system":"https://tools.ietf.org/html/rfc4122","value":"9ca85d9b-c54c-4134-8fcc-3552796c7340"}],"status":"current","mode":"snapshot","code":{"coding":[{"system":"http://snomed.info/sct","code":"886921000000105","display":"Allergies and adverse reactions"}]},"subject":{"reference":"urn:uuid:29995d4a-1ba7-404d-b161-86670848675b"},"encounter":{"reference":"urn:uuid:a7b5ce52-314f-4b82-a131-6ab90d435d30"},"source":{"reference":"urn:uuid:c945c0a4-d63b-4cda-9299-12fe20524adc"},"entry":[{"item":{"reference":"urn:uuid:bae93050-79ec-45c6-9e3e-023593b06641"}}]}},{"fullUrl":"urn:uuid:bae93050-79ec-45c6-9e3e-023593b06641","resource":{"resourceType":"AllergyIntolerance","id":"bae93050-79ec-45c6-9e3e-023593b06641","meta":{"profile":["https://fhir.nhs.uk/STU3/StructureDefinition/CareConnect-ITK-AllergyIntolerance-1"]},"identifier":[{"system":"https://tools.ietf.org/html/rfc4122","value":"9334f90a-7f48-453b-aaa6-7a7a42b8e7a8"}],"clinicalStatus":"active","verificationStatus":"unconfirmed","code":{"coding":[{"system":"http://snomed.info/sct","code":"372687004","display":"Amoxicillin"}]},"patient":{"reference":"urn:uuid:29995d4a-1ba7-404d-b161-86670848675b"},"onsetString":"She first experienced a reaction aged 12.","reaction":[{"manifestation":[{"coding":[{"system":"http://snomed.info/sct","code":"247472004","display":"Urticarial rash"}]}]}]}},{"fullUrl":"urn:uuid:ea41d09b-8c90-4856-9955-4d318ee890e99","resource":{"resourceType":"List","id":"ea41d09b-8c90-4856-9955-4d318ee890e99","meta":{"profile":["https://fhir.nhs.uk/STU3/StructureDefinition/CareConnect-ITK-Condition-List-1"]},"identifier":[{"system":"https://tools.ietf.org/html/rfc4122","value":"9e10304d-6e1f-4eea-9cbc-ad3373966a59"}],"status":"current","mode":"snapshot","code":{"coding":[{"system":"http://snomed.info/sct","code":"887161000000102","display":"Diagnoses"}]},"subject":{"reference":"urn:uuid:29995d4a-1ba7-404d-b161-86670848675b"},"encounter":{"reference":"urn:uuid:a7b5ce52-314f-4b82-a131-6ab90d435d30"},"source":{"reference":"urn:uuid:c945c0a4-d63b-4cda-9299-12fe20524adc"},"entry":[{"item":{"reference":"urn:uuid:50141d4f-fe5a-4616-ab9e-9b0366333ea0"}},{"item":{"reference":"urn:uuid:7ec3effa-da14-47c7-881f-0b04903861c6"}}]}},{"fullUrl":"urn:uuid:50141d4f-fe5a-4616-ab9e-9b0366333ea0","resource":{"resourceType":"Condition","id":"50141d4f-fe5a-4616-ab9e-9b0366333ea0","meta":{"profile":["https://fhir.nhs.uk/STU3/StructureDefinition/CareConnect-ITK-Condition-1"]},"identifier":[{"system":"https://tools.ietf.org/html/rfc4122","value":"369b5cdc-b0aa-4175-8918-9af81651e613"}],"clinicalStatus":"active","category":[{"coding":[{"system":"https://fhir.hl7.org.uk/STU3/CodeSystem/CareConnect-ConditionCategory-1","code":"encounter-diagnosis","display":"Encounter Diagnosis"}]}],"code":{"coding":[{"system":"http://snomed.info/sct","code":"3951002","display":"Proctitis"}]},"subject":{"reference":"urn:uuid:29995d4a-1ba7-404d-b161-86670848675b"},"context":{"reference":"urn:uuid:a7b5ce52-314f-4b82-a131-6ab90d435d30"}}},{"fullUrl":"urn:uuid:7ec3effa-da14-47c7-881f-0b04903861c6","resource":{"resourceType":"Condition","id":"7ec3effa-da14-47c7-881f-0b04903861c6","meta":{"profile":["https://fhir.nhs.uk/STU3/StructureDefinition/CareConnect-ITK-Condition-1"]},"identifier":[{"system":"https://tools.ietf.org/html/rfc4122","value":"f3c08998-307c-49db-a0b0-4f0317a992cb"}],"clinicalStatus":"active","category":[{"coding":[{"system":"https://fhir.hl7.org.uk/STU3/CodeSystem/CareConnect-ConditionCategory-1","code":"encounter-diagnosis","display":"Encounter Diagnosis"}]}],"code":{"coding":[{"system":"http://snomed.info/sct","code":"162031009","display":"Dyspepsia"}]},"subject":{"reference":"urn:uuid:29995d4a-1ba7-404d-b161-86670848675b"},"context":{"reference":"urn:uuid:a7b5ce52-314f-4b82-a131-6ab90d435d30"}}},{"fullUrl":"urn:uuid:aca5e99f-702c-49cb-b162-173d4f5d7fe5","resource":{"resourceType":"List","id":"aca5e99f-702c-49cb-b162-173d4f5d7fe5","meta":{"profile":["https://fhir.nhs.uk/STU3/StructureDefinition/CareConnect-ITK-Procedure-List-1"]},"identifier":[{"system":"https://tools.ietf.org/html/rfc4122","value":"245472b9-244d-4b24-a6f8-75aa195a53b0"}],"status":"current","mode":"snapshot","code":{"coding":[{"system":"http://snomed.info/sct","code":"887171000000109","display":"Procedures"}]},"subject":{"reference":"urn:uuid:29995d4a-1ba7-404d-b161-86670848675b"},"encounter":{"reference":"urn:uuid:a7b5ce52-314f-4b82-a131-6ab90d435d30"},"source":{"reference":"urn:uuid:c945c0a4-d63b-4cda-9299-12fe20524adc"},"entry":[{"item":{"reference":"urn:uuid:c3f61107-b238-43a0-b176-207b4fff9801"}}]}},{"fullUrl":"urn:uuid:c3f61107-b238-43a0-b176-207b4fff9801","resource":{"resourceType":"Procedure","id":"c3f61107-b238-43a0-b176-207b4fff9801","meta":{"profile":["https://fhir.nhs.uk/STU3/StructureDefinition/CareConnect-ITK-Procedure-1"]},"identifier":[{"system":"https://tools.ietf.org/html/rfc4122","value":"6b0b7066-c31d-48f7-ae3c-9f616728429b"}],"status":"completed","code":{"coding":[{"system":"http://snomed.info/sct","code":"235153008","display":"Rigid sigmoidoscopy"}]},"subject":{"reference":"urn:uuid:29995d4a-1ba7-404d-b161-86670848675b"}}},{"fullUrl":"urn:uuid:9788d750-dda9-4c73-b9d5-c08ac2d603fe","resource":{"resourceType":"List","id":"9788d750-dda9-4c73-b9d5-c08ac2d603fe","meta":{"profile":["https://fhir.nhs.uk/STU3/StructureDefinition/CareConnect-ITK-Medication-List-1"]},"identifier":[{"system":"https://tools.ietf.org/html/rfc4122","value":"95ba556b-a8b0-43bb-b30f-21b3d1699313"}],"status":"current","mode":"snapshot","code":{"coding":[{"system":"http://snomed.info/sct","code":"1102411000000102","display":"Active medications"}]},"subject":{"reference":"urn:uuid:29995d4a-1ba7-404d-b161-86670848675b"},"entry":[{"item":{"reference":"urn:uuid:11baa8fd-b670-47d1-ab3a-183488af5c6e"}}]}},{"fullUrl":"urn:uuid:11baa8fd-b670-47d1-ab3a-183488af5c6e","resource":{"resourceType":"MedicationStatement","id":"11baa8fd-b670-47d1-ab3a-183488af5c6e","meta":{"profile":["https://fhir.nhs.uk/STU3/StructureDefinition/CareConnect-ITK-MedicationStatement-1"]},"extension":[{"url":"https://fhir.hl7.org.uk/STU3/StructureDefinition/Extension-CareConnect-MedicationChangeSummary-1","extension":[{"url":"status","valueCode":"Added"}]}],"status":"active","medicationReference":{"reference":"urn:uuid:253e4091-84c2-4c76-abfb-60b9c2ebd475"},"subject":{"reference":"urn:uuid:29995d4a-1ba7-404d-b161-86670848675b"},"taken":"unk","dosage":[{"text":"3 x 800mg once a day","route":{"coding":[{"system":"http://snomed.info/sct","code":"26643006","display":"Oral"}]}}]}},{"fullUrl":"urn:uuid:253e4091-84c2-4c76-abfb-60b9c2ebd475","resource":{"resourceType":"Medication","id":"253e4091-84c2-4c76-abfb-60b9c2ebd475","meta":{"profile":["https://fhir.nhs.uk/STU3/StructureDefinition/CareConnect-ITK-Medication-1"]},"code":{"coding":[{"system":"http://snomed.info/sct","code":"13255311000001101","display":"Asacol 800mg MR gastro-resistant tablets (Allergan Ltd)"}]},"form":{"coding":[{"system":"http://snomed.info/sct","code":"385059007","display":"Gastro-resistant oral tablet"}]}}},{"fullUrl":"urn:uuid:29995d4a-1ba7-404d-b161-86670848675b","resource":{"resourceType":"Patient","id":"29995d4a-1ba7-404d-b161-86670848675b","meta":{"profile":["https://fhir.hl7.org.uk/STU3/StructureDefinition/CareConnect-Patient-1"]},"identifier":[{"extension":[{"url":"https://fhir.hl7.org.uk/STU3/StructureDefinition/Extension-CareConnect-NHSNumberVerificationStatus-1","valueCodeableConcept":{"coding":[{"system":"https://fhir.hl7.org.uk/STU3/CodeSystem/CareConnect-NHSNumberVerificationStatus-1","code":"01","display":"Number present and verified"}]}}],"system":"https://fhir.nhs.uk/Id/nhs-number","value":"1243567890"},{"system":"https://fhir.nhs.uk/Id/local-patient-identifier","value":"TL89765"}],"name":[{"use":"official","family":"Critchard","given":["Agatha"],"prefix":["Ms"]}],"telecom":[{"system":"phone","value":"077 1234 7777","use":"mobile"},{"system":"email","value":"frances@delatour.net"}],"gender":"female","birthDate":"1964-02-01","address":[{"line":["30 Acacia Road"],"postalCode":"BM9 6PL"}]}},{"fullUrl":"urn:uuid:8ece9986-9af0-4882-b0cf-23a96ea7b509","resource":{"resourceType":"Practitioner","id":"8ece9986-9af0-4882-b0cf-23a96ea7b509","meta":{"profile":["https://fhir.hl7.org.uk/STU3/StructureDefinition/CareConnect-Practitioner-1"]},"name":[{"family":"Bryant","given":["N"],"prefix":["Mrs"]}]}},{"fullUrl":"urn:uuid:137bc838-e3ab-4eb2-99e9-32b0c02e70eb","resource":{"resourceType":"Practitioner","id":"137bc838-e3ab-4eb2-99e9-32b0c02e70eb","meta":{"profile":["https://fhir.hl7.org.uk/STU3/StructureDefinition/CareConnect-Practitioner-1"]},"identifier":[{"system":"https://fhir.nhs.uk/Id/local-practitioner-identifier","value":"8122472"}],"name":[{"family":"O'Reilly","given":["C"],"prefix":["Dr"]}],"telecom":[{"system":"phone","value":"01234 956412"}]}},{"fullUrl":"urn:uuid:c945c0a4-d63b-4cda-9299-12fe20524adc","resource":{"resourceType":"Practitioner","id":"c945c0a4-d63b-4cda-9299-12fe20524adc","meta":{"profile":["https://fhir.hl7.org.uk/STU3/StructureDefinition/CareConnect-Practitioner-1"]},"identifier":[{"system":"https://fhir.hl7.org.uk/Id/gmc-number","value":"6775555"}],"name":[{"family":"Jones","given":["Ruth"],"prefix":["Dr"]}],"telecom":[{"system":"phone","value":"01234 562170","use":"work"}]}},{"fullUrl":"urn:uuid:2b103117-a783-4a66-a0de-f308cd6b63cf","resource":{"resourceType":"PractitionerRole","id":"2b103117-a783-4a66-a0de-f308cd6b63cf","meta":{"profile":["https://fhir.hl7.org.uk/STU3/StructureDefinition/CareConnect-PractitionerRole-1"]},"practitioner":{"reference":"urn:uuid:137bc838-e3ab-4eb2-99e9-32b0c02e70eb"},"organization":{"reference":"urn:uuid:00e2ec13-891d-4335-b383-5bb6043331db"},"code":[{"coding":[{"system":"https://fhir.hl7.org.uk/STU3/CodeSystem/CareConnect-SDSJobRoleName-1","code":"R0260","display":"General Medical Practitioner"}]}]}},{"fullUrl":"urn:uuid:ce3c48a6-3a26-4821-aa78-2d290e332629","resource":{"resourceType":"PractitionerRole","id":"ce3c48a6-3a26-4821-aa78-2d290e332629","meta":{"profile":["https://fhir.hl7.org.uk/STU3/StructureDefinition/CareConnect-PractitionerRole-1"]},"practitioner":{"reference":"urn:uuid:c945c0a4-d63b-4cda-9299-12fe20524adc"},"organization":{"reference":"urn:uuid:3e31975f-1460-4fc0-8beb-b26191d1c152"},"code":[{"coding":[{"system":"https://fhir.nhs.uk/STU3/CodeSystem/CareConnect-SDSJobRoleName-1","code":"R0050","display":"Consultant"}]}],"specialty":[{"coding":[{"system":"http://snomed.info/sct","code":"394584008","display":"Gastroenterology"}]}]}},{"fullUrl":"urn:uuid:0e1087cc-7138-4bd1-8d19-99dd73fead99","resource":{"resourceType":"PractitionerRole","id":"0e1087cc-7138-4bd1-8d19-99dd73fead99","meta":{"profile":["https://fhir.hl7.org.uk/STU3/StructureDefinition/CareConnect-PractitionerRole-1"]},"practitioner":{"reference":"urn:uuid:8ece9986-9af0-4882-b0cf-23a96ea7b509"},"organization":{"reference":"urn:uuid:3e31975f-1460-4fc0-8beb-b26191d1c152"}}},{"fullUrl":"urn:uuid:00e2ec13-891d-4335-b383-5bb6043331db","resource":{"resourceType":"Organization","id":"00e2ec13-891d-4335-b383-5bb6043331db","meta":{"profile":["https://fhir.hl7.org.uk/STU3/StructureDefinition/CareConnect-Organization-1"]},"identifier":[{"system":"https://fhir.nhs.uk/Id/ods-organization-code","value":"A111111"}],"name":"Canvas Health Centre","address":[{"line":["27 Acacia Road"],"postalCode":"BM9 6PM"}]}},{"fullUrl":"urn:uuid:3e31975f-1460-4fc0-8beb-b26191d1c152","resource":{"resourceType":"Organization","id":"3e31975f-1460-4fc0-8beb-b26191d1c152","meta":{"profile":["https://fhir.hl7.org.uk/STU3/StructureDefinition/CareConnect-Organization-1"]},"name":"Gastroenterology Department","telecom":[{"system":"phone","value":"01234 567890","use":"work"},{"system":"email","value":"gd@stcrispins.nhs.uk","use":"work"}],"address":[{"line":["St Crispin’s Hospital","Donaldstown"],"postalCode":"DO5 7TP"}]}}]}