{"resourceType":"Bundle","id":"eab677e7-6503-4224-b543-e5df20a4efe1","meta":{"lastUpdated":"2017-05-11T17:38:00+00:00","profile":["https://fhir.nhs.uk/STU3/StructureDefinition/ITK-Document-Bundle-1"]},"identifier":{"system":"https://tools.ietf.org/html/rfc4122","value":"fa7b0d14-2596-497e-b31c-abeaede9bce3"},"type":"document","entry":[{"fullUrl":"urn:uuid:286bfe88-8d90-489d-9eef-8c00e2731470","resource":{"resourceType":"Composition","id":"286bfe88-8d90-489d-9eef-8c00e2731470","meta":{"profile":["https://fhir.nhs.uk/STU3/StructureDefinition/CareConnect-ITK-OPL-Composition-1"]},"extension":[{"url":"https://fhir.hl7.org.uk/STU3/StructureDefinition/Extension-CareConnect-CareSettingType-1","valueCodeableConcept":{"coding":[{"system":"http://snomed.info/sct","code":"893641000000102","display":"Palliative medicine service"}]}}],"identifier":{"system":"https://tools.ietf.org/html/rfc4122","value":"386f8c09-1139-4c3a-bce1-c0e20b557f18"},"status":"final","type":{"coding":[{"system":"http://snomed.info/sct","code":"823681000000100","display":"Outpatient letter"}]},"subject":{"reference":"urn:uuid:159c7259-4253-4e21-90c7-87497a2ba863"},"encounter":{"reference":"urn:uuid:a5c73078-72e8-4c2b-a4f6-a3fdcc53b39e"},"date":"2017-05-11T14:38:00+00:00","author":[{"reference":"urn:uuid:619ac49c-9409-4979-8594-c47d33ef6bfc"}],"title":"Palliative Medicine Service Outpatient Letter","custodian":{"reference":"urn:uuid:3faff938-09cb-4409-bd20-0c47d2fbdf6e"},"section":[{"title":"Allergies and adverse reactions","code":{"coding":[{"system":"http://snomed.info/sct","code":"886921000000105","display":"Allergies and adverse reactions"}]},"text":{"status":"generated","div":"<div xmlns=\"http://www.w3.org/1999/xhtml\"><table width=\"100%\"><tbody><tr><th>Causative agent</th><td>No known allergy</td></tr></tbody></table></div>"},"entry":[{"reference":"urn:uuid:2eabfc12-0994-48aa-ba85-0e58bb8bda14"}]},{"title":"Attendance details","code":{"coding":[{"system":"http://snomed.info/sct","code":"1077881000000105","display":"Attendance details"}]},"text":{"status":"additional","div":"<div xmlns=\"http://www.w3.org/1999/xhtml\"><table width=\"100%\"><tbody><tr><td colspan=\"2\" style=\"width:100%\">Dear Dr. O'Reilly<br />I had the pleasure of meeting Ms. Walker at the palliative care outpatient clinic today, referred by Susan Snodgrass from the community Macmillan team, Endowdown Centre, BM5 0TP on the 23 April 2017.<br /></td></tr><tr><th>Date and time of contact</th><td>01-May-2017 09:00</td></tr><tr><th>Contact type</th><td>First attendance face to face</td></tr><tr><th>Consultation method</th><td>Face-to-face</td></tr><tr><th>Responsible Healthcare professional</th><td>Dr. Doris Mackay (Consultant in Palliative Medicine)</td></tr><tr><th>Specialty</th><td>Palliative medicine</td></tr><tr><th>Service</th><td>Palliative Medicine Service</td></tr><tr><th>Seen by</th><td><p>Prefix: Dr</p><p>Given Name: Doris</p><p>Family Name: Mackay</p><p>Role: Consultant in Palliative Medicine</p><p>Tel: 01234 562987 (Work) Email: cpc@nhs.uk (Work)</p></td></tr><tr><th>Care professionals present</th><td><p>Prefix: Mrs</p><p>Given Name: N</p><p>Family Name: Bryant</p><p>Role: IBD Specialist Nurse</p></td></tr><tr><th>Person accompanying patient</th><td><p>Prefix: Ms.</p><p>Given Name: Karen</p><p>Family Name: Walker</p><p>(daughter)</p></td></tr><tr><th>Outcome of outpatient attendance</th><td>Appointment to be made at a later date</td></tr></tbody></table></div>"},"entry":[{"reference":"urn:uuid:a5c73078-72e8-4c2b-a4f6-a3fdcc53b39e"}]},{"title":"Diagnoses","code":{"coding":[{"system":"http://snomed.info/sct","code":"887161000000102","display":"Diagnoses"}]},"text":{"status":"additional","div":"<div xmlns=\"http://www.w3.org/1999/xhtml\"><table width=\"100%\"><tbody><tr><th>Diagnosis name</th><td>Metastatic renal cell carcinoma</td></tr></tbody></table><table width=\"100%\"><tbody><tr><th>Diagnosis name</th><td>Secondary liver cell carcinoma</td></tr></tbody></table><table width=\"100%\"><tbody><tr><th>Diagnosis name</th><td>Necrotic subcutaneous soft tissue nodule (anterior to liver)</td></tr></tbody></table><table width=\"100%\"><tbody><tr><th>Diagnosis name</th><td>Type 2 diabetes mellitus</td></tr></tbody></table><table width=\"100%\"><tbody><tr><th>Diagnosis name</th><td>Osteoporosis</td></tr></tbody></table><table width=\"100%\"><tbody><tr><th>Diagnosis name</th><td>Hiatus hernia</td></tr></tbody></table><table width=\"100%\"><tbody><tr><th>Diagnosis name</th><td>Vertigo</td></tr></tbody></table></div>"},"entry":[{"reference":"urn:uuid:3a2e303b-d851-474e-96ee-0ba4894513ae"}]},{"title":"Distribution list","code":{"coding":[{"system":"http://snomed.info/sct","code":"887261000000109","display":"Distribution list"}]},"text":{"status":"generated","div":"<div xmlns=\"http://www.w3.org/1999/xhtml\"><table width=\"100%\"><tbody><tr><th>Name</th><td><p>Prefix: Dr</p><p>Given Name: C</p><p>Family Name: O'Reilly</p></td></tr><tr><th>Role</th><td>General Medical Practitioner</td></tr><tr><th>Organisation name</th><td>Canvas Health Centre</td></tr></tbody></table><table width=\"100%\"><tbody><tr><th>Name</th><td><p>Prefix: Mrs</p><p>Given Name: Susan</p><p>Family Name: Snodgrass</p></td></tr><tr><th>Role</th><td>Macmillan nurse</td></tr><tr><th>Organisation name</th><td>Community Macmillan Team</td></tr></tbody></table><table width=\"100%\"><tbody><tr><th>Name</th><td><p>Prefix: Mr</p><p>Family Name: Bromage</p></td></tr><tr><th>Role</th><td>Urologist</td></tr><tr><th>Organisation name</th><td>St. Crispin's Hospital</td></tr></tbody></table><table width=\"100%\"><tbody><tr><th>Name</th><td><p>Prefix: Professor</p><p>Family Name: Hawkins</p></td></tr><tr><th>Role</th><td>Medical Oncologist</td></tr><tr><th>Organisation name</th><td>St. Crispin's Hospital</td></tr></tbody></table><table width=\"100%\"><tbody><tr><th>Name</th><td><p>Prefix: Ms</p><p>Given Name: Margaret</p><p>Family Name: Walker</p></td></tr></tbody></table></div>"},"entry":[{"reference":"urn:uuid:251b960d-3a48-405b-9061-44d51fbf352b"},{"reference":"urn:uuid:296a7f30-033f-4f31-b846-0c2e85836428"},{"reference":"urn:uuid:d3767dcf-8211-41ce-a07f-906c0399c757"},{"reference":"urn:uuid:92181479-95c0-49b8-9cf3-7ffb42823915"},{"reference":"urn:uuid:159c7259-4253-4e21-90c7-87497a2ba863"}]},{"title":"GP practice","code":{"coding":[{"system":"http://snomed.info/sct","code":"886711000000101","display":"GP practice"}]},"text":{"status":"additional","div":"<div xmlns=\"http://www.w3.org/1999/xhtml\"><table width=\"100%\"><tbody><tr><th>GP name</th><td><p>Prefix: Dr</p><p>Given Name: C</p><p>Family Name: O'Reilly</p></td></tr><tr><th>GP practice details</th><td><p>Name: Canvas Health Centre</p><p>Address:</p><p>Address Line: 27, Acacia Road</p><p>Post Code: BM9 6PM</p></td></tr></tbody></table></div>"},"entry":[{"reference":"urn:uuid:2f63f514-d18c-4f45-8c3e-696621271def"}]},{"title":"History","code":{"coding":[{"system":"http://snomed.info/sct","code":"717121000000105","display":"History"}]},"text":{"status":"additional","div":"<div xmlns=\"http://www.w3.org/1999/xhtml\"><table width=\"100%\"><tbody><tr><th>Patient's reason for referral</th><td>Ms. Walker was referred for review of symptom control.</td></tr><tr><th>History since last contact</th><td><p>Pain: Ms. Walker struggles with pain predominantly around the right upper quadrant of her abdomen and this goes all the way round to the back, at worst described as 10/10. She has been reluctant to take full dose of Cocodamol - she intermittently takes one tablet at a time (30/500mg). According to Karen, Ms. Walker clearly has a high pain tolerance level and tends to underplay her symptoms.</p><p>Fatigue: Ms. Walker finds herself tiring out by the second half of the day, particularly if she has done a bit more than usual earlier on.</p><p>Psychologically: According to Karen, she and Ms. Walker have been intermittently tearful and upset given news of disease recurrence and are doing their best to deal with it. Ms. Walker wasn't expecting to hear about cancer recurrence in such a short period after her surgery.</p><p>She has been on pazopanib since May 2017.She had a right nephrectomy for clear cell renal carcinoma in Sept 2016, and now has metastatic disease.</p></td></tr></tbody></table></div>"}},{"title":"Information and advice given","code":{"coding":[{"system":"http://snomed.info/sct","code":"1052951000000105","display":"Information and advice given"}]},"text":{"status":"additional","div":"<div xmlns=\"http://www.w3.org/1999/xhtml\"><table width=\"100%\"><tbody><tr><th>Information and advice given</th></tr><tr><td>We discussed the benefit of being able to do more through the day and having better psychological well-being when pain is better controlled. I have explained how we would use long acting Morphine preparation along with Oramorph to get control of background as well as breakthrough cancer pain. Given the degree of tenderness around the subcutaneous nodule on the right upper quadrant, we have discussed that radiotherapy may be helpful with the pain.</td></tr><tr><td>We discussed that Ms. Walker's fatigue is part of the cancer presentation, and we discussed being pragmatic - doing activities with gaps in between to allow herself to conserve energy whilst pacing herself through the day. I have encouraged her to cut back on tasks that are not as important as others such as her household chores and to delegate them to others, such as family where possible. We acknowledged that this is a significant change in her lifestyle given that she was independently managing everything for a long time.</td></tr><tr><td>I explained that while the speed at which disease recurrence has happened doesn't bode well, we will need to see how Ms. Walker is likely to respond to potential treatment options. We are likely to know more about prognosis following her appointment with the Oncologist in the next couple of weeks - we don't know how she will respond to treatment in itself. It may be that the treatment might be effective but that she might not be strong enough to cope with it on a long term basis; however we are hopeful that there will be some positive outcome with the treatment. I have encouraged her to proceed with planning ahead and deciding about what she would prefer to happen irrespective of her prognosis.</td></tr><tr><td>I have agreed that Ms. Walker's wish not to be resuscitated in the event of a cardio respiratory arrest was sensible and advised her either yourself or I could complete a community DNACPR form in the near future. Her son and daughter are aware that she could have an appointed LPA on matters of her health and well-being. She is considering funeral arrangement plans.</td></tr><tr><td>I have advised that Ms. Walker can get in touch with me if there are any concerns.</td></tr></tbody></table></div>"}},{"title":"Legal information","code":{"coding":[{"system":"http://snomed.info/sct","code":"886961000000102","display":"Legal information"}]},"text":{"status":"additional","div":"<div xmlns=\"http://www.w3.org/1999/xhtml\"><table width=\"100%\"><tbody><tr><th>Lasting power of attorney for personal welfare or court-appointed deputy (or equivalent)</th><td>Ms. Walker's son, Timothy, and daughter, Karen, have an LPA for handling her financial matters.</td></tr></tbody></table></div>"}},{"title":"Medications and medical devices","code":{"coding":[{"system":"http://snomed.info/sct","code":"933361000000108","display":"Medications and medical devices"}]},"text":{"status":"additional","div":"<div xmlns=\"http://www.w3.org/1999/xhtml\"><table width=\"100%\"><tbody><tr><td colspan=\"2\">I have given Ms. Walker the following prescriptions for new medications<br />\r\n(only changes to medications and medical devices as a result of the outpatient encounter are included):<br />\r\nNew medication:<br /></td></tr></tbody></table><table width=\"100%\"><tbody><tr><th>Medication name</th><td>MST Continus 15mg tablets (Napp Pharmaceuticals Ltd)</td></tr><tr><th>Form</th><td>Tablet</td></tr><tr><th>Route</th><td>Oral</td></tr><tr><th>Dose amount description</th><td>1 x 15mg</td></tr><tr><th>Dose timing description</th><td>Twice per day</td></tr><tr><th>Start date/time</th><td>11/05/17</td></tr><tr><th>End date/time</th><td>24/05/17</td></tr><tr><th>Indication</th><td>Pain relief</td></tr><tr><th>Comment/recommendation</th><td>Please renew the prescription in 2x weeks.</td></tr><tr><th>Status</th><td>Added</td></tr></tbody></table><table width=\"100%\"><tbody><tr><th>Medication name</th><td>Oramorph 10mg/5ml oral solution (Boehringer Ingelheim Ltd)</td></tr><tr><th>Form</th><td>Oral solution</td></tr><tr><th>Route</th><td>Oral</td></tr><tr><th>Dose amount description</th><td>2.5-5mg</td></tr><tr><th>Dose timing description</th><td>As necessary</td></tr><tr><th>Additional instruction</th><td>Not to be taken more frequently than once every two hours.</td></tr><tr><th>Start date/time</th><td>11/05/17</td></tr><tr><th>End date/time</th><td>24/05/17</td></tr><tr><th>Indication</th><td>Pain relief</td></tr><tr><th>Comment/recommendation</th><td>Please review the prescription if necessary.</td></tr><tr><th>Status</th><td>Added</td></tr></tbody></table><table width=\"100%\"><tbody><tr><th>Medication name</th><td>Metoclopramide 10mg tablets (A A H Pharmaceuticals Ltd)</td></tr><tr><th>Form</th><td>Tablet</td></tr><tr><th>Route</th><td>Oral</td></tr><tr><th>Dose amount description</th><td>10mg</td></tr><tr><th>Dose timing description</th><td>As necessary</td></tr><tr><th>Additional instruction</th><td>Not to be taken more frequently than three times a day.</td></tr><tr><th>Start date/time</th><td>11/05/17</td></tr><tr><th>End date/time</th><td>24/05/17</td></tr><tr><th>Indication</th><td>Nausea</td></tr><tr><th>Comment/recommendation</th><td>Please review the prescription if necessary.</td></tr><tr><th>Status</th><td>Added</td></tr></tbody></table><table width=\"100%\"><tbody><tr><th>Medication name</th><td>Dexamethasone 2mg tablets (Almus Pharmaceuticals Ltd)</td></tr><tr><th>Form</th><td>Tablet</td></tr><tr><th>Route</th><td>Oral</td></tr><tr><th>Dose amount description</th><td>4mg</td></tr><tr><th>Dose timing description</th><td>Once per day</td></tr><tr><th>Additional instruction</th><td>To be taken in the morning</td></tr><tr><th>Start date/time</th><td>11/05/17</td></tr><tr><th>End date/time</th><td>15/05/17</td></tr><tr><th>Indication</th><td>Increase energy levels and appetite</td></tr><tr><th>Status</th><td>Added</td></tr></tbody></table></div>"},"entry":[{"reference":"urn:uuid:f1a5b4ca-dd46-4242-84de-c57e29332e0b"}]},{"title":"Patient and carer concerns, expectations and wishes","code":{"coding":[{"system":"http://snomed.info/sct","code":"1052941000000107","display":"Patient and carer concerns, expectations and wishes"}]},"text":{"status":"additional","div":"<div xmlns=\"http://www.w3.org/1999/xhtml\"><table width=\"100%\"><tbody><tr><th>Patient and carer concerns, expectations and wishes</th><td>Ms. Walker is very clear that she wishes to have more as much detail as possible and asked about her prognosis. She does not wish to be resuscitated in the event of a cardio respiratory arrest.</td></tr></tbody></table></div>"}},{"title":"Patient demographics","code":{"coding":[{"system":"http://snomed.info/sct","code":"886731000000109","display":"Patient demographics"}]},"text":{"status":"generated","div":"<div xmlns=\"http://www.w3.org/1999/xhtml\"><table width=\"100%\"><tbody><tr><th>Patient name</th><td><p>Prefix: Ms</p><p>Given Name: Margaret</p><p>Family Name: Walker</p></td></tr><tr><th>Date of birth</th><td>1 February 1964</td></tr><tr><th>Gender</th><td>Female</td></tr><tr><th>NHS number</th><td>1243511100</td></tr><tr><th>Other identifier</th><td>TL89711</td></tr><tr><th>Patient address</th><td><p>Address Line: 30, Acacia Road</p><p>Post Code: BM9 6PL</p></td></tr><tr><th>Patient email address</th><td>margaret@walker.net</td></tr><tr><th>Patient telephone number</th><td>Mobile: 077 1234 1111</td></tr></tbody></table></div>"},"entry":[{"reference":"urn:uuid:159c7259-4253-4e21-90c7-87497a2ba863"}]},{"title":"Person completing record","code":{"coding":[{"system":"http://snomed.info/sct","code":"887231000000104","display":"Person completing record"}]},"text":{"status":"additional","div":"<div xmlns=\"http://www.w3.org/1999/xhtml\"><table width=\"100%\"><tbody><tr><th>Name</th><td><p>Prefix: Dr</p><p>Given Name: Doris</p><p>Family Name: Mackay</p></td></tr><tr><th>Role</th><td>Consultant in Palliative Medicine</td></tr><tr><th>Specialty</th><td>Palliative medicine</td></tr><tr><th>Professional identifier</th><td>GMC: 6775552</td></tr><tr><th>Date and time completed</th><td>01/05/17: 16:42</td></tr><tr><th>Contact details</th><td>Tel: 01234 562987 (Work) Email: pm@stcrispins.nhs.uk</td></tr></tbody></table></div>"},"entry":[{"reference":"urn:uuid:619ac49c-9409-4979-8594-c47d33ef6bfc"}]},{"title":"Plan and requested actions","code":{"coding":[{"system":"http://snomed.info/sct","code":"887201000000105","display":"Plan and requested actions"}]},"text":{"status":"additional","div":"<div xmlns=\"http://www.w3.org/1999/xhtml\"><table width=\"100%\"><tbody><tr><th>Actions for healthcare professionals</th></tr><tr><td>Ms. Walker is to be supported to complete a community DNACPR form when she is ready (Doris MacKay or Dr. C. O'Reilly depending on timing).</td></tr><tr><td>Ms. Walker is to see Professor Hawkins for consideration of immunotherapy as it is hopeful that she will have some benefit from this treatment. Currently her performance status is around 1-2.</td></tr><tr><td>Professor Hawkins is requested to consider radiotherapy to help with pain as a result of degree of tenderness around the subcutaneous nodule on the right upper quadrant</td></tr><tr><td>Kindly arrange for a blood glucose check next week as Dexamethasone might increase her BM levels. (She is aware that this is likely to be temporary and will get better with stopping Dexamethasone). (Action for Dr. C. O'Reilly).</td></tr></tbody></table></div>"}},{"title":"Problems and issues","code":{"coding":[{"system":"http://snomed.info/sct","code":"887151000000100","display":"Problems and issues"}]},"text":{"status":"additional","div":"<div xmlns=\"http://www.w3.org/1999/xhtml\"><table width=\"100%\"><tbody><tr><th>Problems and issues</th><td><p>Pain</p><p>Nausea</p><p>Fatigue</p><p>Psychologically: tearful and upset</p></td></tr></tbody></table></div>"}},{"title":"Referrer details","code":{"coding":[{"system":"http://snomed.info/sct","code":"1052891000000108","display":"Referrer details"}]},"text":{"status":"generated","div":"<div xmlns=\"http://www.w3.org/1999/xhtml\"><table width=\"100%\"><tbody><tr><td>Referrer name: <p>Prefix: Mrs</p><p>Given Name: Susan</p><p>Family Name: Snodgrass</p><p>Role: Macmillan nurse</p><p>Organisation Name: Community Macmillan Team</p><p>Address Line: Endowdown Centre</p><p>Post Code: BM9 0TP</p></td></tr></tbody></table></div>"},"entry":[{"reference":"urn:uuid:296a7f30-033f-4f31-b846-0c2e85836428"},{"reference":"urn:uuid:acf62618-11e8-4734-887a-a77ebc514a7d"}]}]}},{"fullUrl":"urn:uuid:a5c73078-72e8-4c2b-a4f6-a3fdcc53b39e","resource":{"resourceType":"Encounter","id":"a5c73078-72e8-4c2b-a4f6-a3fdcc53b39e","meta":{"profile":["https://fhir.nhs.uk/STU3/StructureDefinition/CareConnect-ITK-Encounter-1"]},"extension":[{"url":"https://fhir.hl7.org.uk/STU3/StructureDefinition/Extension-CareConnect-OutcomeOfAttendance-1","valueCodeableConcept":{"coding":[{"system":"https://fhir.hl7.org.uk/STU3/CodeSystem/CareConnect-OutcomeOfAttendance-1","code":"3","display":"Appointment to be made at a later date"}]}}],"identifier":[{"system":"https://tools.ietf.org/html/rfc4122","value":"3da3e1b0-76a6-411f-9b56-d19b73f8d901"}],"status":"finished","class":{"system":"http://hl7.org/fhir/v3-ActEncounterCode","code":"AMB","display":"ambulatory"},"type":[{"coding":[{"system":"https://www.datadictionary.nhs.uk","code":"1","display":"First attendance face to face"}]}],"subject":{"reference":"urn:uuid:159c7259-4253-4e21-90c7-87497a2ba863"},"participant":[{"type":[{"coding":[{"system":"http://hl7.org/fhir/v3/ParticipationType","code":"ATND","display":"attender"}]}],"individual":{"reference":"urn:uuid:619ac49c-9409-4979-8594-c47d33ef6bfc"}},{"type":[{"coding":[{"system":"http://hl7.org/fhir/v3/ParticipationType","code":"PART","display":"Participation"}]}],"individual":{"reference":"urn:uuid:1dffd073-b889-4795-ad75-f4cf6fa2cfde"}},{"type":[{"coding":[{"system":"http://hl7.org/fhir/v3/ParticipationType","code":"PART","display":"Participation"}]}],"individual":{"reference":"urn:uuid:76a4bad2-b852-4f2f-b413-2258c66eb12f"}}],"period":{"start":"2017-05-01T09:00:00+00:00","end":"2017-05-01T10:00:00+00:00"}}},{"fullUrl":"urn:uuid:2eabfc12-0994-48aa-ba85-0e58bb8bda14","resource":{"resourceType":"List","id":"2eabfc12-0994-48aa-ba85-0e58bb8bda14","meta":{"profile":["https://fhir.nhs.uk/STU3/StructureDefinition/CareConnect-ITK-Allergy-List-1"]},"identifier":[{"system":"https://tools.ietf.org/html/rfc4122","value":"4b1b78bd-9d4c-4bdb-8522-7a88f9c23737"}],"status":"current","mode":"snapshot","code":{"coding":[{"system":"http://snomed.info/sct","code":"886921000000105","display":"Allergies and adverse reactions"}]},"subject":{"reference":"urn:uuid:159c7259-4253-4e21-90c7-87497a2ba863"},"encounter":{"reference":"urn:uuid:a5c73078-72e8-4c2b-a4f6-a3fdcc53b39e"},"source":{"reference":"urn:uuid:619ac49c-9409-4979-8594-c47d33ef6bfc"},"entry":[{"item":{"reference":"urn:uuid:b309fbfe-7642-4e52-8b94-c6b8161602e5"}}]}},{"fullUrl":"urn:uuid:b309fbfe-7642-4e52-8b94-c6b8161602e5","resource":{"resourceType":"AllergyIntolerance","id":"b309fbfe-7642-4e52-8b94-c6b8161602e5","meta":{"profile":["https://fhir.nhs.uk/STU3/StructureDefinition/CareConnect-ITK-AllergyIntolerance-1"]},"identifier":[{"system":"https://tools.ietf.org/html/rfc4122","value":"62679f41-42c0-4056-919e-8a03b6b06cbe"}],"clinicalStatus":"active","verificationStatus":"confirmed","code":{"coding":[{"system":"http://snomed.info/sct","code":"716186003","display":"No known allergy"}]},"patient":{"reference":"urn:uuid:159c7259-4253-4e21-90c7-87497a2ba863"}}},{"fullUrl":"urn:uuid:3a2e303b-d851-474e-96ee-0ba4894513ae","resource":{"resourceType":"List","id":"3a2e303b-d851-474e-96ee-0ba4894513ae","meta":{"profile":["https://fhir.nhs.uk/STU3/StructureDefinition/CareConnect-ITK-Condition-List-1"]},"identifier":[{"system":"https://tools.ietf.org/html/rfc4122","value":"f87cce0b-a70d-47d8-953f-00439117d6dd"}],"status":"current","mode":"snapshot","code":{"coding":[{"system":"http://snomed.info/sct","code":"887161000000102","display":"Diagnoses"}]},"subject":{"reference":"urn:uuid:159c7259-4253-4e21-90c7-87497a2ba863"},"encounter":{"reference":"urn:uuid:a5c73078-72e8-4c2b-a4f6-a3fdcc53b39e"},"source":{"reference":"urn:uuid:619ac49c-9409-4979-8594-c47d33ef6bfc"},"entry":[{"item":{"reference":"urn:uuid:25682e5b-1453-42ae-b830-091f75dedbd3"}},{"item":{"reference":"urn:uuid:26aacb3d-e1aa-4f29-8103-69ca35c81b88"}},{"item":{"reference":"urn:uuid:a5b3ac0b-11e3-4906-bf31-9797731acacb"}},{"item":{"reference":"urn:uuid:d97c0b6c-fa12-47b5-87e6-1ec7964fc4ba"}},{"item":{"reference":"urn:uuid:7383d629-d00a-4e13-99e7-e42b238bdb63"}},{"item":{"reference":"urn:uuid:8770ebe2-8153-4248-ab0d-5d59bdf71ee6"}},{"item":{"reference":"urn:uuid:542580ae-c5b3-4c8d-87b5-c9085a9fce0a"}}]}},{"fullUrl":"urn:uuid:25682e5b-1453-42ae-b830-091f75dedbd3","resource":{"resourceType":"Condition","id":"25682e5b-1453-42ae-b830-091f75dedbd3","meta":{"profile":["https://fhir.nhs.uk/STU3/StructureDefinition/CareConnect-ITK-Condition-1"]},"identifier":[{"system":"https://tools.ietf.org/html/rfc4122","value":"bc8e4fc0-18dc-46b5-9f60-30857b24e42b"}],"clinicalStatus":"active","category":[{"coding":[{"system":"https://fhir.hl7.org.uk/STU3/CodeSystem/CareConnect-ConditionCategory-1","code":"encounter-diagnosis","display":"Encounter Diagnosis"}]}],"code":{"coding":[{"system":"http://snomed.info/sct","code":"702392008","display":"Metastatic renal cell carcinoma"}]},"subject":{"reference":"urn:uuid:159c7259-4253-4e21-90c7-87497a2ba863"},"context":{"reference":"urn:uuid:a5c73078-72e8-4c2b-a4f6-a3fdcc53b39e"}}},{"fullUrl":"urn:uuid:26aacb3d-e1aa-4f29-8103-69ca35c81b88","resource":{"resourceType":"Condition","id":"26aacb3d-e1aa-4f29-8103-69ca35c81b88","meta":{"profile":["https://fhir.nhs.uk/STU3/StructureDefinition/CareConnect-ITK-Condition-1"]},"identifier":[{"system":"https://tools.ietf.org/html/rfc4122","value":"d1901194-bb4a-4991-a07d-b66220c7b0ce"}],"clinicalStatus":"active","category":[{"coding":[{"system":"https://fhir.hl7.org.uk/STU3/CodeSystem/CareConnect-ConditionCategory-1","code":"encounter-diagnosis","display":"Encounter Diagnosis"}]}],"code":{"coding":[{"system":"http://snomed.info/sct","code":"64859006","display":"Osteoporosis"}]},"subject":{"reference":"urn:uuid:159c7259-4253-4e21-90c7-87497a2ba863"},"context":{"reference":"urn:uuid:a5c73078-72e8-4c2b-a4f6-a3fdcc53b39e"}}},{"fullUrl":"urn:uuid:a5b3ac0b-11e3-4906-bf31-9797731acacb","resource":{"resourceType":"Condition","id":"a5b3ac0b-11e3-4906-bf31-9797731acacb","meta":{"profile":["https://fhir.nhs.uk/STU3/StructureDefinition/CareConnect-ITK-Condition-1"]},"identifier":[{"system":"https://tools.ietf.org/html/rfc4122","value":"cde9c268-4459-4fb9-a22c-652c2e92e259"}],"clinicalStatus":"active","category":[{"coding":[{"system":"https://fhir.hl7.org.uk/STU3/CodeSystem/CareConnect-ConditionCategory-1","code":"encounter-diagnosis","display":"Encounter Diagnosis"}]}],"code":{"coding":[{"system":"http://snomed.info/sct","code":"84089009","display":"Hiatus hernia"}]},"subject":{"reference":"urn:uuid:159c7259-4253-4e21-90c7-87497a2ba863"},"context":{"reference":"urn:uuid:a5c73078-72e8-4c2b-a4f6-a3fdcc53b39e"}}},{"fullUrl":"urn:uuid:d97c0b6c-fa12-47b5-87e6-1ec7964fc4ba","resource":{"resourceType":"Condition","id":"d97c0b6c-fa12-47b5-87e6-1ec7964fc4ba","meta":{"profile":["https://fhir.nhs.uk/STU3/StructureDefinition/CareConnect-ITK-Condition-1"]},"identifier":[{"system":"https://tools.ietf.org/html/rfc4122","value":"cdb02716-c937-4f1f-8f93-99144e7db8dc"}],"clinicalStatus":"active","category":[{"coding":[{"system":"https://fhir.hl7.org.uk/STU3/CodeSystem/CareConnect-ConditionCategory-1","code":"encounter-diagnosis","display":"Encounter Diagnosis"}]}],"code":{"coding":[{"system":"http://snomed.info/sct","code":"399153001","display":"Vertigo"}]},"subject":{"reference":"urn:uuid:159c7259-4253-4e21-90c7-87497a2ba863"},"context":{"reference":"urn:uuid:a5c73078-72e8-4c2b-a4f6-a3fdcc53b39e"}}},{"fullUrl":"urn:uuid:7383d629-d00a-4e13-99e7-e42b238bdb63","resource":{"resourceType":"Condition","id":"7383d629-d00a-4e13-99e7-e42b238bdb63","meta":{"profile":["https://fhir.nhs.uk/STU3/StructureDefinition/CareConnect-ITK-Condition-1"]},"identifier":[{"system":"https://tools.ietf.org/html/rfc4122","value":"7ff04ab5-500c-467b-8d6b-b53be89bb7c1"}],"clinicalStatus":"active","category":[{"coding":[{"system":"https://fhir.hl7.org.uk/STU3/CodeSystem/CareConnect-ConditionCategory-1","code":"encounter-diagnosis","display":"Encounter Diagnosis"}]}],"code":{"coding":[{"system":"http://snomed.info/sct","code":"25370001","display":"Liver cell carcinoma"}]},"subject":{"reference":"urn:uuid:159c7259-4253-4e21-90c7-87497a2ba863"},"context":{"reference":"urn:uuid:a5c73078-72e8-4c2b-a4f6-a3fdcc53b39e"}}},{"fullUrl":"urn:uuid:8770ebe2-8153-4248-ab0d-5d59bdf71ee6","resource":{"resourceType":"Condition","id":"8770ebe2-8153-4248-ab0d-5d59bdf71ee6","meta":{"profile":["https://fhir.nhs.uk/STU3/StructureDefinition/CareConnect-ITK-Condition-1"]},"identifier":[{"system":"https://tools.ietf.org/html/rfc4122","value":"44c39a36-a0b3-47f8-83a3-bcdd06c8a10b"}],"clinicalStatus":"active","category":[{"coding":[{"system":"https://fhir.hl7.org.uk/STU3/CodeSystem/CareConnect-ConditionCategory-1","code":"encounter-diagnosis","display":"Encounter Diagnosis"}]}],"code":{"coding":[{"system":"http://snomed.info/sct","code":"396559007","display":"Necrotic tumour"}]},"subject":{"reference":"urn:uuid:159c7259-4253-4e21-90c7-87497a2ba863"},"context":{"reference":"urn:uuid:a5c73078-72e8-4c2b-a4f6-a3fdcc53b39e"}}},{"fullUrl":"urn:uuid:542580ae-c5b3-4c8d-87b5-c9085a9fce0a","resource":{"resourceType":"Condition","id":"542580ae-c5b3-4c8d-87b5-c9085a9fce0a","meta":{"profile":["https://fhir.nhs.uk/STU3/StructureDefinition/CareConnect-ITK-Condition-1"]},"identifier":[{"system":"https://tools.ietf.org/html/rfc4122","value":"440b7d68-b7f6-4325-8bc9-f47636ca7b0c"}],"clinicalStatus":"active","category":[{"coding":[{"system":"https://fhir.hl7.org.uk/STU3/CodeSystem/CareConnect-ConditionCategory-1","code":"encounter-diagnosis","display":"Encounter Diagnosis"}]}],"code":{"coding":[{"system":"http://snomed.info/sct","code":"44054006","display":"Type 2 diabetes mellitus"}]},"subject":{"reference":"urn:uuid:159c7259-4253-4e21-90c7-87497a2ba863"},"context":{"reference":"urn:uuid:a5c73078-72e8-4c2b-a4f6-a3fdcc53b39e"}}},{"fullUrl":"urn:uuid:04255f4b-4f56-4893-83a5-132295fc9252","resource":{"resourceType":"MedicationDispense","id":"04255f4b-4f56-4893-83a5-132295fc9252","meta":{"profile":["https://fhir.nhs.uk/STU3/StructureDefinition/CareConnect-ITK-MedicationDispense-1"]},"identifier":[{"system":"https://tools.ietf.org/html/rfc4122","value":"cbf634a0-cf6b-4cd0-a4ae-099a1f5be239"}],"status":"completed","category":{"coding":[{"system":"http://hl7.org/fhir/medication-dispense-category","code":"Outpatient","display":"Outpatient","userSelected":false}]},"medicationReference":{"reference":"urn:uuid:f3794fb1-da60-4aa2-8513-76be59cea00e"},"subject":{"reference":"urn:uuid:159c7259-4253-4e21-90c7-87497a2ba863"},"context":{"reference":"urn:uuid:a5c73078-72e8-4c2b-a4f6-a3fdcc53b39e"},"quantity":{"extension":[{"url":"https://fhir.hl7.org.uk/STU3/StructureDefinition/Extension-CareConnect-MedicationQuantityText-1","valueString":"840 mg"}]}}},{"fullUrl":"urn:uuid:16079bc3-569d-4ab1-9e20-aad7a3a37308","resource":{"resourceType":"MedicationDispense","id":"16079bc3-569d-4ab1-9e20-aad7a3a37308","meta":{"profile":["https://fhir.nhs.uk/STU3/StructureDefinition/CareConnect-ITK-MedicationDispense-1"]},"identifier":[{"system":"https://tools.ietf.org/html/rfc4122","value":"a945d91a-104f-4b99-9837-8836403fa6b5"}],"status":"completed","category":{"coding":[{"system":"http://hl7.org/fhir/medication-dispense-category","code":"Outpatient","display":"Outpatient","userSelected":false}]},"medicationReference":{"reference":"urn:uuid:b60f319f-d57a-499e-bea8-2fa8a7a3c991"},"subject":{"reference":"urn:uuid:159c7259-4253-4e21-90c7-87497a2ba863"},"context":{"reference":"urn:uuid:a5c73078-72e8-4c2b-a4f6-a3fdcc53b39e"},"quantity":{"extension":[{"url":"https://fhir.hl7.org.uk/STU3/StructureDefinition/Extension-CareConnect-MedicationQuantityText-1","valueString":"42 tablets"}]}}},{"fullUrl":"urn:uuid:b8ed9522-8e86-4044-93c5-e205f46bcc40","resource":{"resourceType":"MedicationDispense","id":"b8ed9522-8e86-4044-93c5-e205f46bcc40","meta":{"profile":["https://fhir.nhs.uk/STU3/StructureDefinition/CareConnect-ITK-MedicationDispense-1"]},"identifier":[{"system":"https://tools.ietf.org/html/rfc4122","value":"5128efc6-c2ee-4944-8657-5c8c1234d415"}],"status":"completed","category":{"coding":[{"system":"http://hl7.org/fhir/medication-dispense-category","code":"Outpatient","display":"Outpatient","userSelected":false}]},"medicationReference":{"reference":"urn:uuid:4e36f600-a5aa-43a0-9216-c98e92359ad0"},"subject":{"reference":"urn:uuid:159c7259-4253-4e21-90c7-87497a2ba863"},"context":{"reference":"urn:uuid:a5c73078-72e8-4c2b-a4f6-a3fdcc53b39e"},"quantity":{"extension":[{"url":"https://fhir.hl7.org.uk/STU3/StructureDefinition/Extension-CareConnect-MedicationQuantityText-1","valueString":"10 tablets"}]}}},{"fullUrl":"urn:uuid:be7f7afa-6a86-4e85-ba5b-b6e3679782b8","resource":{"resourceType":"MedicationDispense","id":"be7f7afa-6a86-4e85-ba5b-b6e3679782b8","meta":{"profile":["https://fhir.nhs.uk/STU3/StructureDefinition/CareConnect-ITK-MedicationDispense-1"]},"identifier":[{"system":"https://tools.ietf.org/html/rfc4122","value":"ae2d91e8-39e6-4038-b5f6-b5d201784bef"}],"status":"completed","category":{"coding":[{"system":"http://hl7.org/fhir/medication-dispense-category","code":"Outpatient","display":"Outpatient","userSelected":false}]},"medicationReference":{"reference":"urn:uuid:50700125-0e95-4318-acec-bf82b6869bef"},"subject":{"reference":"urn:uuid:159c7259-4253-4e21-90c7-87497a2ba863"},"context":{"reference":"urn:uuid:a5c73078-72e8-4c2b-a4f6-a3fdcc53b39e"},"quantity":{"extension":[{"url":"https://fhir.hl7.org.uk/STU3/StructureDefinition/Extension-CareConnect-MedicationQuantityText-1","valueString":"28 tablets"}]}}},{"fullUrl":"urn:uuid:f1a5b4ca-dd46-4242-84de-c57e29332e0b","resource":{"resourceType":"List","id":"f1a5b4ca-dd46-4242-84de-c57e29332e0b","meta":{"profile":["https://fhir.nhs.uk/STU3/StructureDefinition/CareConnect-ITK-Medication-List-1"]},"identifier":[{"system":"https://tools.ietf.org/html/rfc4122","value":"6e502319-e803-4320-9863-90148690d506"}],"status":"current","mode":"snapshot","code":{"coding":[{"system":"http://snomed.info/sct","code":"1102411000000102","display":"Active medications"}]},"subject":{"reference":"urn:uuid:159c7259-4253-4e21-90c7-87497a2ba863"},"encounter":{"reference":"urn:uuid:a5c73078-72e8-4c2b-a4f6-a3fdcc53b39e"},"source":{"reference":"urn:uuid:619ac49c-9409-4979-8594-c47d33ef6bfc"},"entry":[{"item":{"reference":"urn:uuid:ce94f1f1-98fe-4b10-b4d0-2a23219be31f"}},{"item":{"reference":"urn:uuid:383e14f4-0482-495f-8ded-375403b8d26c"}},{"item":{"reference":"urn:uuid:be646155-35a9-45be-9c5f-afc4c0fb4355"}},{"item":{"reference":"urn:uuid:230c45fa-4fa6-4488-aec5-89af63af0e6d"}}]}},{"fullUrl":"urn:uuid:383e14f4-0482-495f-8ded-375403b8d26c","resource":{"resourceType":"MedicationStatement","id":"383e14f4-0482-495f-8ded-375403b8d26c","meta":{"profile":["https://fhir.nhs.uk/STU3/StructureDefinition/CareConnect-ITK-MedicationStatement-1"]},"extension":[{"url":"https://fhir.hl7.org.uk/STU3/StructureDefinition/Extension-CareConnect-MedicationChangeSummary-1","extension":[{"url":"status","valueCode":"Added"}]}],"identifier":[{"system":"https://tools.ietf.org/html/rfc4122","value":"dc2c6d9b-f897-4491-857f-d4c99e52bbe1"}],"status":"active","medicationReference":{"reference":"urn:uuid:f3794fb1-da60-4aa2-8513-76be59cea00e"},"subject":{"reference":"urn:uuid:159c7259-4253-4e21-90c7-87497a2ba863"},"taken":"y","dosage":[{"text":"2.5-5mg as necessary","patientInstruction":"Not to be taken more frequently than once every two hours.","route":{"coding":[{"system":"http://snomed.info/sct","code":"26643006","display":"Oral"}]}}]}},{"fullUrl":"urn:uuid:f3794fb1-da60-4aa2-8513-76be59cea00e","resource":{"resourceType":"Medication","id":"f3794fb1-da60-4aa2-8513-76be59cea00e","meta":{"profile":["https://fhir.nhs.uk/STU3/StructureDefinition/CareConnect-ITK-Medication-1"]},"code":{"coding":[{"system":"http://snomed.info/sct","code":"3164311000001109","display":"Oramorph 10mg/5ml oral solution (Boehringer Ingelheim Ltd)"}]},"form":{"coding":[{"system":"http://snomed.info/sct","code":"385023001","display":"Oral solution"}]}}},{"fullUrl":"urn:uuid:ce94f1f1-98fe-4b10-b4d0-2a23219be31f","resource":{"resourceType":"MedicationStatement","id":"ce94f1f1-98fe-4b10-b4d0-2a23219be31f","meta":{"profile":["https://fhir.nhs.uk/STU3/StructureDefinition/CareConnect-ITK-MedicationStatement-1"]},"extension":[{"url":"https://fhir.hl7.org.uk/STU3/StructureDefinition/Extension-CareConnect-MedicationChangeSummary-1","extension":[{"url":"status","valueCode":"Added"}]}],"identifier":[{"system":"https://tools.ietf.org/html/rfc4122","value":"4feab769-1b3e-437d-8a4a-e73baa273dbe"}],"status":"active","medicationReference":{"reference":"urn:uuid:b60f319f-d57a-499e-bea8-2fa8a7a3c991"},"subject":{"reference":"urn:uuid:159c7259-4253-4e21-90c7-87497a2ba863"},"taken":"y","dosage":[{"text":"10mg as necessary","patientInstruction":"Not to be taken more frequently than three times a day.","route":{"coding":[{"system":"http://snomed.info/sct","code":"26643006","display":"Oral"}]}}]}},{"fullUrl":"urn:uuid:b60f319f-d57a-499e-bea8-2fa8a7a3c991","resource":{"resourceType":"Medication","id":"b60f319f-d57a-499e-bea8-2fa8a7a3c991","meta":{"profile":["https://fhir.nhs.uk/STU3/StructureDefinition/CareConnect-ITK-Medication-1"]},"code":{"coding":[{"system":"http://snomed.info/sct","code":"66711000001100","display":"Metoclopramide 10mg tablets (A A H Pharmaceuticals Ltd)"}]},"form":{"coding":[{"system":"http://snomed.info/sct","code":"385055001","display":"Tablet"}]}}},{"fullUrl":"urn:uuid:be646155-35a9-45be-9c5f-afc4c0fb4355","resource":{"resourceType":"MedicationStatement","id":"be646155-35a9-45be-9c5f-afc4c0fb4355","meta":{"profile":["https://fhir.nhs.uk/STU3/StructureDefinition/CareConnect-ITK-MedicationStatement-1"]},"extension":[{"url":"https://fhir.hl7.org.uk/STU3/StructureDefinition/Extension-CareConnect-MedicationChangeSummary-1","extension":[{"url":"status","valueCode":"Added"}]}],"identifier":[{"system":"https://tools.ietf.org/html/rfc4122","value":"59fe5923-97c6-497c-b218-66c3e936b505"}],"status":"active","medicationReference":{"reference":"urn:uuid:4e36f600-a5aa-43a0-9216-c98e92359ad0"},"subject":{"reference":"urn:uuid:159c7259-4253-4e21-90c7-87497a2ba863"},"taken":"y","dosage":[{"text":"4mg once per day","patientInstruction":"To be taken in the morning","route":{"coding":[{"system":"http://snomed.info/sct","code":"26643006","display":"Oral"}]}}]}},{"fullUrl":"urn:uuid:4e36f600-a5aa-43a0-9216-c98e92359ad0","resource":{"resourceType":"Medication","id":"4e36f600-a5aa-43a0-9216-c98e92359ad0","meta":{"profile":["https://fhir.nhs.uk/STU3/StructureDefinition/CareConnect-ITK-Medication-1"]},"code":{"coding":[{"system":"http://snomed.info/sct","code":"17967911000001107","display":"Dexamethasone 2mg tablets (Almus Pharmaceuticals Ltd)"}]},"form":{"coding":[{"system":"http://snomed.info/sct","code":"385055001","display":"Tablet"}]}}},{"fullUrl":"urn:uuid:230c45fa-4fa6-4488-aec5-89af63af0e6d","resource":{"resourceType":"MedicationStatement","id":"230c45fa-4fa6-4488-aec5-89af63af0e6d","meta":{"profile":["https://fhir.nhs.uk/STU3/StructureDefinition/CareConnect-ITK-MedicationStatement-1"]},"extension":[{"url":"https://fhir.hl7.org.uk/STU3/StructureDefinition/Extension-CareConnect-MedicationChangeSummary-1","extension":[{"url":"status","valueCode":"Added"}]}],"identifier":[{"system":"https://tools.ietf.org/html/rfc4122","value":"bba2f77c-9c61-41c8-a466-04ee9d04ff1c"}],"status":"active","medicationReference":{"reference":"urn:uuid:50700125-0e95-4318-acec-bf82b6869bef"},"subject":{"reference":"urn:uuid:159c7259-4253-4e21-90c7-87497a2ba863"},"taken":"y","dosage":[{"text":"1 x 15mg twice per day","route":{"coding":[{"system":"http://snomed.info/sct","code":"26643006","display":"Oral"}]}}]}},{"fullUrl":"urn:uuid:50700125-0e95-4318-acec-bf82b6869bef","resource":{"resourceType":"Medication","id":"50700125-0e95-4318-acec-bf82b6869bef","meta":{"profile":["https://fhir.nhs.uk/STU3/StructureDefinition/CareConnect-ITK-Medication-1"]},"code":{"coding":[{"system":"http://snomed.info/sct","code":"272811000001105","display":"MST Continus 15mg tablets (Napp Pharmaceuticals Ltd)"}]},"form":{"coding":[{"system":"http://snomed.info/sct","code":"385055001","display":"Tablet"}]}}},{"fullUrl":"urn:uuid:159c7259-4253-4e21-90c7-87497a2ba863","resource":{"resourceType":"Patient","id":"159c7259-4253-4e21-90c7-87497a2ba863","meta":{"profile":["https://fhir.hl7.org.uk/STU3/StructureDefinition/CareConnect-Patient-1"]},"identifier":[{"extension":[{"url":"https://fhir.hl7.org.uk/STU3/StructureDefinition/Extension-CareConnect-NHSNumberVerificationStatus-1","valueCodeableConcept":{"coding":[{"system":"https://fhir.hl7.org.uk/STU3/CodeSystem/CareConnect-NHSNumberVerificationStatus-1","code":"01","display":"Number present and verified"}]}}],"system":"https://fhir.nhs.uk/Id/nhs-number","value":"1243511100"},{"system":"https://fhir.nhs.uk/Id/local-patient-identifier","value":"TL89711"}],"name":[{"use":"official","family":"Margaret","given":["Walker"],"prefix":["Mrs"]}],"telecom":[{"system":"phone","value":"077 1234 1111","use":"mobile"},{"system":"email","value":"margaret@walker.net","use":"home"}],"gender":"female","birthDate":"1964-02-01","address":[{"use":"home","line":["30 Acacia Road"],"postalCode":"BM9 6PL"}]}},{"fullUrl":"urn:uuid:76a4bad2-b852-4f2f-b413-2258c66eb12f","resource":{"resourceType":"RelatedPerson","id":"76a4bad2-b852-4f2f-b413-2258c66eb12f","meta":{"profile":["https://fhir.nhs.uk/STU3/StructureDefinition/ITK-RelatedPerson-1"]},"patient":{"reference":"urn:uuid:159c7259-4253-4e21-90c7-87497a2ba863"},"relationship":{"coding":[{"system":"http://hl7.org/fhir/v3/RoleCode","code":"DAU","display":"natural daughter"}]},"name":[{"use":"official","family":"Walker","given":["Karen"],"prefix":["Ms"]}]}},{"fullUrl":"urn:uuid:619ac49c-9409-4979-8594-c47d33ef6bfc","resource":{"resourceType":"Practitioner","id":"619ac49c-9409-4979-8594-c47d33ef6bfc","meta":{"profile":["https://fhir.hl7.org.uk/STU3/StructureDefinition/CareConnect-Practitioner-1"]},"identifier":[{"system":"https://fhir.hl7.org.uk/Id/gmc-number","value":"6775552"}],"name":[{"family":"MacKay","given":["Doris"],"prefix":["Dr"]}],"telecom":[{"system":"phone","value":"01234 562987","use":"work"},{"system":"email","value":"pm@stcrispins.nhs.uk","use":"work"}],"address":[{"line":["Department of Palliative Medicine, St. Crispin's Hospital"],"city":"Donaldstown","postalCode":"DO5 7TP"}]}},{"fullUrl":"urn:uuid:251b960d-3a48-405b-9061-44d51fbf352b","resource":{"resourceType":"Practitioner","id":"251b960d-3a48-405b-9061-44d51fbf352b","meta":{"profile":["https://fhir.hl7.org.uk/STU3/StructureDefinition/CareConnect-Practitioner-1"]},"identifier":[{"system":"https://fhir.nhs.uk/Id/local-practitioner-identifier","value":"8122472"}],"name":[{"family":"O'Reilly","given":["C"],"prefix":["Dr"]}],"telecom":[{"system":"phone","value":"01234 956412","use":"work"}]}},{"fullUrl":"urn:uuid:81ebf8a3-f96a-426a-893b-0b81fcaec59d","resource":{"resourceType":"PractitionerRole","id":"81ebf8a3-f96a-426a-893b-0b81fcaec59d","meta":{"profile":["https://fhir.hl7.org.uk/STU3/StructureDefinition/CareConnect-PractitionerRole-1"]},"practitioner":{"reference":"urn:uuid:251b960d-3a48-405b-9061-44d51fbf352b"},"organization":{"reference":"urn:uuid:2f63f514-d18c-4f45-8c3e-696621271def"},"code":[{"coding":[{"system":"https://fhir.hl7.org.uk/STU3/CodeSystem/CareConnect-SDSJobRoleName-1","code":"R0260","display":"General Medical Practitioner"}]}]}},{"fullUrl":"urn:uuid:7d071f2c-6c2e-4a1b-befe-55ff24745985","resource":{"resourceType":"PractitionerRole","id":"7d071f2c-6c2e-4a1b-befe-55ff24745985","meta":{"profile":["https://fhir.hl7.org.uk/STU3/StructureDefinition/CareConnect-PractitionerRole-1"]},"practitioner":{"reference":"urn:uuid:619ac49c-9409-4979-8594-c47d33ef6bfc"},"organization":{"reference":"urn:uuid:3faff938-09cb-4409-bd20-0c47d2fbdf6e"},"code":[{"coding":[{"system":"https://fhir.hl7.org.uk/STU3/CodeSystem/CareConnect-SDSJobRoleName-1","code":"R0050","display":"Consultant"}]}],"specialty":[{"coding":[{"system":"http://snomed.info/sct","code":"394806003","display":"Palliative medicine"}]}]}},{"fullUrl":"urn:uuid:296a7f30-033f-4f31-b846-0c2e85836428","resource":{"resourceType":"Practitioner","id":"296a7f30-033f-4f31-b846-0c2e85836428","meta":{"profile":["https://fhir.hl7.org.uk/STU3/StructureDefinition/CareConnect-Practitioner-1"]},"identifier":[{"system":"https://fhir.nhs.uk/Id/sds-user-id","value":"033345750626"}],"name":[{"family":"Snodgrass","given":["Susan"],"prefix":["Mrs"]}]}},{"fullUrl":"urn:uuid:ef4f6df5-5081-4684-9239-b440c2169a9e","resource":{"resourceType":"PractitionerRole","id":"ef4f6df5-5081-4684-9239-b440c2169a9e","meta":{"profile":["https://fhir.hl7.org.uk/STU3/StructureDefinition/CareConnect-PractitionerRole-1"]},"practitioner":{"reference":"urn:uuid:296a7f30-033f-4f31-b846-0c2e85836428"},"organization":{"reference":"urn:uuid:acf62618-11e8-4734-887a-a77ebc514a7d"},"code":[{"coding":[{"system":"http://snomed.info/sct","code":"224553003","display":"Macmillan nurse"}]}]}},{"fullUrl":"urn:uuid:d3767dcf-8211-41ce-a07f-906c0399c757","resource":{"resourceType":"Practitioner","id":"d3767dcf-8211-41ce-a07f-906c0399c757","meta":{"profile":["https://fhir.hl7.org.uk/STU3/StructureDefinition/CareConnect-Practitioner-1"]},"identifier":[{"system":"https://fhir.nhs.uk/Id/local-practitioner-identifier","value":"8122479"}],"name":[{"family":"Hawkins","prefix":["Professor"]}],"address":[{"use":"work","line":["St. Crispin's Hospital"],"city":"Donaldstown","postalCode":"DO5 7TP"}]}},{"fullUrl":"urn:uuid:a3e9f6f0-801e-49b2-b7f1-e62c47fb7498","resource":{"resourceType":"PractitionerRole","id":"a3e9f6f0-801e-49b2-b7f1-e62c47fb7498","meta":{"profile":["https://fhir.hl7.org.uk/STU3/StructureDefinition/CareConnect-PractitionerRole-1"]},"practitioner":{"reference":"urn:uuid:d3767dcf-8211-41ce-a07f-906c0399c757"},"organization":{"reference":"urn:uuid:3faff938-09cb-4409-bd20-0c47d2fbdf6e"},"code":[{"coding":[{"system":"http://snomed.info/sct","code":"310512001","display":"Medical oncologist"}]}]}},{"fullUrl":"urn:uuid:92181479-95c0-49b8-9cf3-7ffb42823915","resource":{"resourceType":"Practitioner","id":"92181479-95c0-49b8-9cf3-7ffb42823915","meta":{"profile":["https://fhir.hl7.org.uk/STU3/StructureDefinition/CareConnect-Practitioner-1"]},"identifier":[{"system":"https://fhir.nhs.uk/Id/local-practitioner-identifier","value":"8122470"}],"name":[{"family":"Bromage","prefix":["Mr"]}],"address":[{"use":"work","line":["St. Crispin's Hospital"],"city":"Donaldstown","postalCode":"DO5 7TP"}]}},{"fullUrl":"urn:uuid:889a476e-279a-4e2f-a2ce-a9ca75df33de","resource":{"resourceType":"PractitionerRole","id":"889a476e-279a-4e2f-a2ce-a9ca75df33de","meta":{"profile":["https://fhir.hl7.org.uk/STU3/StructureDefinition/CareConnect-PractitionerRole-1"]},"practitioner":{"reference":"urn:uuid:92181479-95c0-49b8-9cf3-7ffb42823915"},"organization":{"reference":"urn:uuid:3faff938-09cb-4409-bd20-0c47d2fbdf6e"},"code":[{"coding":[{"system":"http://snomed.info/sct","code":"24590004","display":"Urologist"}]}]}},{"fullUrl":"urn:uuid:1dffd073-b889-4795-ad75-f4cf6fa2cfde","resource":{"resourceType":"Practitioner","id":"1dffd073-b889-4795-ad75-f4cf6fa2cfde","meta":{"profile":["https://fhir.hl7.org.uk/STU3/StructureDefinition/CareConnect-Practitioner-1"]},"name":[{"family":"Bryant","given":["N"],"prefix":["Mrs"]}]}},{"fullUrl":"urn:uuid:2f63f514-d18c-4f45-8c3e-696621271def","resource":{"resourceType":"Organization","id":"2f63f514-d18c-4f45-8c3e-696621271def","meta":{"profile":["https://fhir.hl7.org.uk/STU3/StructureDefinition/CareConnect-Organization-1"]},"identifier":[{"system":"https://fhir.nhs.uk/Id/ods-organization-code","value":"A111111"}],"name":"Canvas Health Centre","telecom":[{"system":"phone","value":"01234 956412","use":"work"}],"address":[{"use":"work","line":["27 Acacia Road"],"postalCode":"BM9 6PM"}]}},{"fullUrl":"urn:uuid:3faff938-09cb-4409-bd20-0c47d2fbdf6e","resource":{"resourceType":"Organization","id":"3faff938-09cb-4409-bd20-0c47d2fbdf6e","meta":{"profile":["https://fhir.hl7.org.uk/STU3/StructureDefinition/CareConnect-Organization-1"]},"identifier":[{"system":"https://fhir.nhs.uk/Id/ods-organization-code","value":"RX0000"}],"name":"St Crispin's Hospital"}},{"fullUrl":"urn:uuid:acf62618-11e8-4734-887a-a77ebc514a7d","resource":{"resourceType":"Organization","id":"acf62618-11e8-4734-887a-a77ebc514a7d","meta":{"profile":["https://fhir.hl7.org.uk/STU3/StructureDefinition/CareConnect-Organization-1"]},"identifier":[{"system":"https://fhir.nhs.uk/Id/ods-organization-code","value":"RX0645"}],"name":"Community Macmillan Team","address":[{"use":"work","line":["Endowdown Centre"],"postalCode":"BM5 0TP"}]}}]}