{"resourceType":"Bundle","id":"6191cc21-cb11-4d99-8cb2-2afe1c7e9d2f","meta":{"lastUpdated":"2015-03-05T14:00:00+00:00","profile":["https://fhir.nhs.uk/STU3/StructureDefinition/ITK-Document-Bundle-1"]},"identifier":{"system":"https://tools.ietf.org/html/rfc4122","value":"8added16-7324-4b62-acea-dbc2c88fb3cd"},"type":"document","entry":[{"fullUrl":"urn:uuid:c8572d03-8669-4689-b713-ba68753a49d6","resource":{"resourceType":"Composition","id":"c8572d03-8669-4689-b713-ba68753a49d6","meta":{"profile":["https://fhir.nhs.uk/STU3/StructureDefinition/CareConnect-ITK-MH-Composition-1"]},"extension":[{"url":"https://fhir.hl7.org.uk/STU3/StructureDefinition/Extension-CareConnect-CareSettingType-1","valueCodeableConcept":{"coding":[{"system":"http://snomed.info/sct","code":"892811000000109","display":"Adult mental health service"}]}}],"identifier":{"system":"https://tools.ietf.org/html/rfc4122","value":"53cb32ab-a858-44d6-9bef-34c7fc4ee4ec"},"status":"final","type":{"coding":[{"system":"http://snomed.info/sct","code":"373942005","display":"Discharge summary"}]},"subject":{"reference":"urn:uuid:1c5a26fd-b317-4fc0-8e0d-7ed8c75d34d8"},"encounter":{"reference":"urn:uuid:c37a3a1a-0895-44c4-a79a-f7b7bb425e47"},"date":"2015-03-05T12:00:00+00:00","author":[{"reference":"urn:uuid:ba20623e-6d70-420e-bbf9-e4b6ac0f50b3"}],"title":"Adult Mental Health Service Discharge Summary","custodian":{"reference":"urn:uuid:35e7fc14-f7cb-4b6d-bb41-2ad7f45c501c"},"section":[{"title":"Admission details","code":{"coding":[{"system":"http://snomed.info/sct","code":"886781000000108","display":"Admission details"}]},"text":{"status":"additional","div":"<div xmlns=\"http://www.w3.org/1999/xhtml\"><table width=\"100%\"><tbody><tr><th>Reason for admission</th><td>Paranoid Schizophrenia</td></tr><tr><th>Admission method</th><td>Accident and emergency or dental casualty department of the Health Care Provider</td></tr><tr><th>Legal status on admission</th><td>Informal</td></tr><tr><th>Source of admission</th><td>NHS other Hospital Provider - Ward for general Patients or the younger physically disabled or A and E department</td></tr><tr><th>Date/time of admission</th><td>12-Feb-2015 12:00</td></tr></tbody></table></div>"},"entry":[{"reference":"urn:uuid:c37a3a1a-0895-44c4-a79a-f7b7bb425e47"}]},{"title":"Allergies and adverse reactions","code":{"coding":[{"system":"http://snomed.info/sct","code":"886921000000105","display":"Allergies and adverse reactions"}]},"text":{"status":"generated","div":"<div xmlns=\"http://www.w3.org/1999/xhtml\"><table width=\"100%\"><tbody><tr><th>Causative agent</th><td>No known allergy</td></tr></tbody></table></div>"},"entry":[{"reference":"urn:uuid:975a3836-a71d-4773-b7c4-e79bdd1306e9"}]},{"title":"Clinical summary","code":{"coding":[{"system":"http://snomed.info/sct","code":"887181000000106","display":"Clinical summary"}]},"text":{"status":"additional","div":"<div xmlns=\"http://www.w3.org/1999/xhtml\"><table width=\"100%\"><tbody><tr><th>Clinical Summary</th></tr><tr><td><p>Brought to the hospital A+E department by the police as had been involved in a disturbance in a shopping centre, assaulting another customer.</p><p>Agitated on interview and denying any thoughts of self-harm.</p><p>Denied any drug misuse.</p><p>Well known to local mental health services.</p></td></tr><tr><th>Treatments and interventions and changes made to treatments</th></tr><tr><td><p>Tested negative for banned substances following admission.</p><p>Diagnosis of Paranoid Schizophrenia, frequently uncompliant with treatment.</p><p>Due to poor adherence with treatment she was discharged from hospital subject to a Community Treatment Order and is, \r\ntherefore, subject to recall to hospital if she does not adhere to treatment.</p></td></tr></tbody></table></div>"}},{"title":"Diagnoses","code":{"coding":[{"system":"http://snomed.info/sct","code":"887161000000102","display":"Diagnoses"}]},"text":{"status":"generated","div":"<div xmlns=\"http://www.w3.org/1999/xhtml\"><table width=\"100%\"><tbody><tr><th>Diagnosis name</th><td>Paranoid Schizophrenia</td></tr></tbody></table></div>"},"entry":[{"reference":"urn:uuid:1a7c1ae4-cc97-46cf-b307-63ca0cc30d07"}]},{"title":"Discharge details","code":{"coding":[{"system":"http://snomed.info/sct","code":"886811000000106","display":"Discharge details"}]},"text":{"status":"additional","div":"<div xmlns=\"http://www.w3.org/1999/xhtml\"><table width=\"100%\"><tbody><tr><th>Discharging consultant</th><td><p>Prefix: Dr</p><p>Given Name: Mike</p><p>Family Name: Scott</p></td></tr><tr><th>Discharging specialty/department</th><td>Adult mental illness - speciality</td></tr><tr><th>Discharge location</th><td><p>Name: Allerton ward</p><p>Identifier: RR8ALL</p></td></tr><tr><th>Date/time of discharge</th><td>05-Mar-2015 12:00</td></tr><tr><th>Legal status on discharge</th><td>Formal CTO</td></tr><tr><th>Discharge method</th><td>Patient discharged on clinical advice or with clinical consent</td></tr><tr><th>Discharge type</th><td>Temporary place of residence when usually resident elsewhere (e.g. hotels, residential Educational Establishment)</td></tr><tr><th>Discharge address</th><td>27, Grove Street, Leeds, LS21 4GG</td></tr></tbody></table></div>"},"entry":[{"reference":"urn:uuid:c37a3a1a-0895-44c4-a79a-f7b7bb425e47"},{"reference":"urn:uuid:ba20623e-6d70-420e-bbf9-e4b6ac0f50b3"}]},{"title":"Distribution list","code":{"coding":[{"system":"http://snomed.info/sct","code":"887261000000109","display":"Distribution list"}]},"text":{"status":"generated","div":"<div xmlns=\"http://www.w3.org/1999/xhtml\"><table width=\"100%\"><tbody><tr><th>Name</th><td><p>Prefix: Mrs</p><p>Given Name: Gay</p><p>Family Name: Gillingham</p></td></tr><tr><th>Role</th><td>Consultant</td></tr><tr><th>Organisation name</th><td>Leeds Mental Health NHS Trust</td></tr></tbody></table><table width=\"100%\"><tbody><tr><th>Name</th><td><p>Prefix: Dr</p><p>Given Name: James</p><p>Family Name: Lozo</p></td></tr><tr><th>Role</th><td>General Medical Practitioner</td></tr><tr><th>Organisation name</th><td>MGP Medical Centre</td></tr></tbody></table></div>"},"entry":[{"reference":"urn:uuid:4d6804c1-6e9a-4ddd-bf4d-bec9f6f13de7"},{"reference":"urn:uuid:3572fd25-27ad-44d4-80a7-8e23c730e2f2"}]},{"title":"GP practice","code":{"coding":[{"system":"http://snomed.info/sct","code":"886711000000101","display":"GP practice"}]},"text":{"status":"additional","div":"<div xmlns=\"http://www.w3.org/1999/xhtml\"><table width=\"100%\"><tbody><tr><th>GP name</th><td><p>Prefix: Dr</p><p>Given Name: James</p><p>Family Name: Lozo</p></td></tr><tr><th>GP practice details</th><td><p>Name: MGP Medical Centre</p><p>Address:</p><p>Address Line: 1 MGP House, Overtown</p><p>City: Leeds</p><p>Post Code: LS21 7PA</p></td></tr></tbody></table></div>"},"entry":[{"reference":"urn:uuid:0a8c9568-62d7-49f0-ab13-313215c497ab"}]},{"title":"Individual requirements","code":{"coding":[{"system":"http://snomed.info/sct","code":"1078911000000106","display":"Individual requirements"}]},"text":{"status":"additional","div":"<div xmlns=\"http://www.w3.org/1999/xhtml\"><table width=\"100%\"><tbody><tr><th>Individual requirements</th><td>No special requirements, but states that her daughter should be contacted in an emergency.</td></tr></tbody></table></div>"}},{"title":"Information and advice given","code":{"coding":[{"system":"http://snomed.info/sct","code":"1052951000000105","display":"Information and advice given"}]},"text":{"status":"additional","div":"<div xmlns=\"http://www.w3.org/1999/xhtml\"><table width=\"100%\"><tbody><tr><th>Information and advice given</th><td>Patient warned that she is subject to recall to hospital if she does not adhere to treatment.</td></tr></tbody></table></div>"}},{"title":"Investigation results","code":{"coding":[{"system":"http://snomed.info/sct","code":"1082101000000102","display":"Investigation results"}]},"text":{"status":"additional","div":"<div xmlns=\"http://www.w3.org/1999/xhtml\"><table><tbody><tr><th>Investigation result</th></tr><tr><td><pre>\r\nFull Blood Count      \r\n      \r\nTest\t\t\t\t\t\tValue\t\t\tUnits\t\t\tReference Range\r\nWhite Cell Count\t\t\t\t11.1\t\t\tx10*9/L\t\t\t3.5 - 10.0\r\nRed Cell Count\t\t\t\t\t5.0\t\t\tx10*12/L\t\t4.25 - 5.75 \r\nHaemoglobin\t\t\t\t\t150\t\t\tg/L\t\t\t13.0 - 17.0\r\nHaematocrit\t\t\t\t\t0.230\t\t\t\t\t\t0.400 - 0.500\r\nMean Cell Volume\t\t\t\t90\t\t\tfL\t\t\t84 - 98\r\nMean Cell Hb\t\t\t\t\t33.0\t\t\tpg\t\t\t27.5 - 32.0\r\nMean Cell Hb Con\t\t\t\t34.0\t\t\tpg\t\t\t31.0 - 35.0\r\nRDW\t\t\t\t\t\t12.0\t\t\t%\t\t\t&lt; 14.5\r\nPlatelet Count\t\t\t\t\t300\t\t\tx10*9/L\t\t\t150 - 400\r\n\r\nMachine Differential      \r\n      \r\nTest                  \t\t\t\tValue\t\t\tUnits        \t\tReference Range\r\nNeutrophils\t\t\t\t\t7.0\t\t\tx10*9/L\t\t\t1.7 - 7.5\r\nLymphocytes\t\t\t\t\t3.5\t\t\tx10*9/L\t\t\t1.0 - 3.5   \r\nMonocytes\t\t\t\t\t0.3\t\t\tx10*9/L\t\t\t&lt; 0.6  \r\nEosinophils\t\t\t\t\t0.4\t\t\tx10*9/L\t\t\t&lt; 0.4  \r\nBasophils\t\t\t\t\t0.1\t\t\tx10*9/L\t\t\t&lt; 0.1 \r\nLUCs\t\t\t\t\t\t0.2\t\t\tx10*9/L\t\t\t&lt; 0.4 \r\n      </pre></td></tr></tbody></table></div>"}},{"title":"Legal information","code":{"coding":[{"system":"http://snomed.info/sct","code":"886961000000102","display":"Legal information"}]},"text":{"status":"additional","div":"<div xmlns=\"http://www.w3.org/1999/xhtml\"><table width=\"100%\"><tbody><tr><th>Consent for treatment record</th><td>Patient has consented to treatment, but will be subject to recall to hospital if she does not adhere to treatment.</td></tr><tr><th>Mental capacity assessment</th><td>Not undertaken</td></tr><tr><th>Safeguarding issues</th><td>None</td></tr></tbody></table></div>"}},{"title":"Medications and medical devices","code":{"coding":[{"system":"http://snomed.info/sct","code":"933361000000108","display":"Medications and medical devices"}]},"text":{"status":"extensions","div":"<div xmlns=\"http://www.w3.org/1999/xhtml\"><table width=\"100%\"><tbody><tr><th>Medication name</th><td>Olanzapine 10mg tablets (Accord Healthcare Ltd)</td></tr><tr><th>Form</th><td>Tablet</td></tr><tr><th>Route</th><td>Oral</td></tr><tr><th>Dose directions description</th><td>Take one 10 mg tablet daily.</td></tr><tr><th>Status</th><td>Continued</td></tr></tbody></table><table width=\"100%\"><tbody><tr><th>Medication name</th><td>Diazepam 2mg tablets (A A H Pharmaceuticals Ltd)</td></tr><tr><th>Form</th><td>Tablet</td></tr><tr><th>Route</th><td>Oral</td></tr><tr><th>Dose directions description</th><td>Take three 2mg tablets daily for 7 days</td></tr><tr><th>Status</th><td>Added</td></tr></tbody></table></div>"},"entry":[{"reference":"urn:uuid:9b1cf5d4-2445-4c99-994a-b75b1a13a4f3"}]},{"title":"Patient and carer concerns, expectations and wishes","code":{"coding":[{"system":"http://snomed.info/sct","code":"1052941000000107","display":"Patient and carer concerns, expectations and wishes"}]},"text":{"status":"additional","div":"<div xmlns=\"http://www.w3.org/1999/xhtml\"><table width=\"100%\"><tbody><tr><th>Patient and carer concerns, expectations and wishes</th><td>Patient stated \"I want to stay with my daughter till I recover.\"</td></tr></tbody></table></div>"}},{"title":"Patient demographics","code":{"coding":[{"system":"http://snomed.info/sct","code":"886731000000109","display":"Patient demographics"}]},"text":{"status":"additional","div":"<div xmlns=\"http://www.w3.org/1999/xhtml\"><table width=\"100%\"><tbody><tr><th>Patient name</th><td><p>Prefix: Ms</p><p>Given Name: Elizabeth</p><p>Family Name: Black</p></td></tr><tr><th>Patient preferred name</th><td><p>Prefix: Ms</p><p>Given Name: Liz</p><p>Family Name: Black</p></td></tr><tr><th>Date of birth</th><td>09 June 1969</td></tr><tr><th>Gender</th><td>Female</td></tr><tr><th>NHS number</th><td>9996668887</td></tr><tr><th>Patient address</th><td><p>Address Line: 21, Grove Street, Overtown</p><p>City: Leeds</p><p>Post Code: LS21 4GG</p></td></tr><tr><th>Relevant contacts</th><td>Name: Susan Smith<p>Relationship: Next of kin</p><p>Contact details: Tel: 0782345678 Email: mrssuesmith@mymail.com</p></td></tr></tbody></table></div>"},"entry":[{"reference":"urn:uuid:1c5a26fd-b317-4fc0-8e0d-7ed8c75d34d8"}]},{"title":"Person completing record","code":{"coding":[{"system":"http://snomed.info/sct","code":"887231000000104","display":"Person completing record"}]},"text":{"status":"additional","div":"<div xmlns=\"http://www.w3.org/1999/xhtml\"><table width=\"100%\"><tbody><tr><th>Name</th><td><p>Prefix: Dr</p><p>Given Name: Mike</p><p>Family Name: Scott</p></td></tr><tr><th>Role</th><td>Specialist Registrar</td></tr><tr><th>Specialty</th><td>Adult mental illness - speciality</td></tr><tr><th>Date and time completed</th><td>05-Mar-2015 13:00</td></tr><tr><th>Contact details</th><td>Phone: 0113 111225 (Work)</td></tr><tr><th>Organisation</th><td><p>Name: Leeds Mental Health Trust,</p><p>Address Line: Twenty One Fifty, Thorpe Park,</p><p>City: Leeds</p><p>Post Code: LS15 8ZB</p></td></tr></tbody></table></div>"},"entry":[{"reference":"urn:uuid:ba20623e-6d70-420e-bbf9-e4b6ac0f50b3"}]},{"title":"Plan and requested actions","code":{"coding":[{"system":"http://snomed.info/sct","code":"887201000000105","display":"Plan and requested actions"}]},"text":{"status":"additional","div":"<div xmlns=\"http://www.w3.org/1999/xhtml\"><table width=\"100%\"><tbody><tr><th>Actions for healthcare professionals</th><td><p>Physical attention will be needed from Primary Care due to the fact she is an atypical antipsychotic and \r\nwill need weight and general health monitoring</p><p>Person responsible: Dr Gillingham, Leeds Recovery and Support Team.</p><p>Status: Requested</p><p>Outcome and expectations: The patient is expected to benefit from physical attention from healthcare professionals and understands that she must attend her appointments.</p></td></tr><tr><th>Actions for patient or their carer</th><td>Patient has agreed to commence the prescribed medication and expects this to improve her condition.</td></tr><tr><th>Agreed with patient or legitimate patient representative</th><td>Patient has agreed to treatment plan and expects this to improve her mental and physical condition.</td></tr><tr><th>Care planning arrangements</th><td>CPA Status and 117 Aftercare: Follow up will be made by the Leeds Recovery and Support team. \r\n7 Day Follow up will be done by the community team.</td></tr></tbody></table></div>"}},{"title":"Procedures","code":{"coding":[{"system":"http://snomed.info/sct","code":"887171000000109","display":"Procedures"}]},"text":{"status":"generated","div":"<div xmlns=\"http://www.w3.org/1999/xhtml\"><table width=\"100%\"><tbody><tr><th>Procedure name</th><td>Drug of abuse screen</td></tr></tbody></table></div>"},"entry":[{"reference":"urn:uuid:f5ad3779-20b7-4dd4-b73e-251b079936c3"}]},{"title":"Referrer details","code":{"coding":[{"system":"http://snomed.info/sct","code":"1052891000000108","display":"Referrer details"}]},"text":{"status":"generated","div":"<div xmlns=\"http://www.w3.org/1999/xhtml\"><table width=\"100%\"><tbody><tr><th>Referrer details</th><td><p>Name:</p><p>Prefix: Dr.</p><p>Given name: Daniel</p><p>Family name: Beck</p><p>Role: Consultant</p><p>Tel: 0113 3246666 (work)</p><p>Organisation</p><p>Name: Leeds Mental Health NHS Trust</p><p>Identifier: RGDA</p><p>Address Line: Twenty One Fifty, Thorpe Park</p><p>City: Leeds</p><p>Post Code: LS15 8ZB</p></td></tr></tbody></table></div>"},"entry":[{"reference":"urn:uuid:1858f474-c235-4e73-ab8d-a0a2236613d6"},{"reference":"urn:uuid:35e7fc14-f7cb-4b6d-bb41-2ad7f45c501c"}]},{"title":"Safety alerts","code":{"coding":[{"system":"http://snomed.info/sct","code":"886931000000107","display":"Safety alerts"}]},"text":{"status":"additional","div":"<div xmlns=\"http://www.w3.org/1999/xhtml\"><table width=\"100%\"><tbody><tr><th>Risks to self</th><td>None</td></tr><tr><th>Risks to others</th><td>Can be abusive and agitated when non compliant with treatment</td></tr><tr><th>Risk from others</th><td>None</td></tr></tbody></table></div>"}},{"title":"Social context","code":{"coding":[{"system":"http://snomed.info/sct","code":"887051000000101","display":"Social context"}]},"text":{"status":"additional","div":"<div xmlns=\"http://www.w3.org/1999/xhtml\"><table width=\"100%\"><tbody><tr><th>Household composition</th><td>Lives alone</td></tr><tr><th>Alcohol intake</th><td>50 units/week</td></tr><tr><th>Drug/substance use</th><td>Frequently uncompliant with treatment and during these times often misuses alcohol and cannabis.</td></tr></tbody></table></div>"}}]}},{"fullUrl":"urn:uuid:c37a3a1a-0895-44c4-a79a-f7b7bb425e47","resource":{"resourceType":"Encounter","id":"c37a3a1a-0895-44c4-a79a-f7b7bb425e47","meta":{"profile":["https://fhir.nhs.uk/STU3/StructureDefinition/CareConnect-ITK-Encounter-1"]},"extension":[{"url":"https://fhir.hl7.org.uk/STU3/StructureDefinition/Extension-CareConnect-AdmissionMethod-1","valueCodeableConcept":{"coding":[{"system":"https://fhir.hl7.org.uk/STU3/CodeSystem/CareConnect-AdmissionMethod-1","code":"21","display":"Accident and emergency or dental casualty department of the Health Care Provider"}]}}],"identifier":[{"system":"https://tools.ietf.org/html/rfc4122","value":"e7fc263c-2e22-4dd1-9f5e-57e0e005128f"}],"status":"finished","class":{"system":"http://hl7.org/fhir/v3-ActEncounterCode","code":"IMP","display":"inpatient encounter"},"type":[{"coding":[{"system":"http://snomed.info/sct","code":"163771000000109","display":"Mental health care spell"}]}],"subject":{"reference":"urn:uuid:1c5a26fd-b317-4fc0-8e0d-7ed8c75d34d8"},"participant":[{"type":[{"coding":[{"system":"http://hl7.org/fhir/v3/ParticipationType","code":"DIS","display":"discharger"}]}],"individual":{"reference":"urn:uuid:ba20623e-6d70-420e-bbf9-e4b6ac0f50b3"}}],"period":{"start":"2015-02-12T12:00:00+00:00","end":"2015-03-05T12:00:00+00:00"},"reason":[{"coding":[{"system":"http://snomed.info/sct","code":"64905009","display":"Paranoid schizophrenia"}]}],"hospitalization":{"admitSource":{"coding":[{"system":"https://fhir.hl7.org.uk/STU3/CodeSystem/CareConnect-SourceOfAdmission-1","code":"51","display":"NHS other Hospital Provider - Ward for general Patients or the younger physically disabled or A and E department"}]},"dischargeDisposition":{"coding":[{"system":"https://fhir.hl7.org.uk/STU3/CodeSystem/CareConnect-DischargeDestination-1","code":"29","display":"Temporary place of residence when usually resident elsewhere (e.g. hotels, residential Educational Establishment)"}]}},"location":[{"location":{"reference":"urn:uuid:d19c145a-9fa4-401d-89cc-4024c1a9b74a"},"period":{"end":"2015-03-05T12:00:00+00:00"}}]}},{"fullUrl":"urn:uuid:975a3836-a71d-4773-b7c4-e79bdd1306e9","resource":{"resourceType":"List","id":"975a3836-a71d-4773-b7c4-e79bdd1306e9","meta":{"profile":["https://fhir.nhs.uk/STU3/StructureDefinition/CareConnect-ITK-Allergy-List-1"]},"identifier":[{"system":"https://tools.ietf.org/html/rfc4122","value":"f076cd77-db45-4a22-af7e-9dfbd107432b"}],"status":"current","mode":"snapshot","code":{"coding":[{"system":"http://snomed.info/sct","code":"886921000000105","display":"Allergies and adverse reactions"}]},"subject":{"reference":"urn:uuid:1c5a26fd-b317-4fc0-8e0d-7ed8c75d34d8"},"encounter":{"reference":"urn:uuid:c37a3a1a-0895-44c4-a79a-f7b7bb425e47"},"source":{"reference":"urn:uuid:ba20623e-6d70-420e-bbf9-e4b6ac0f50b3"},"entry":[{"item":{"reference":"urn:uuid:795343f5-0431-4af4-bc93-f8724bd93fd4"}}]}},{"fullUrl":"urn:uuid:795343f5-0431-4af4-bc93-f8724bd93fd4","resource":{"resourceType":"AllergyIntolerance","id":"795343f5-0431-4af4-bc93-f8724bd93fd4","meta":{"profile":["https://fhir.nhs.uk/STU3/StructureDefinition/CareConnect-ITK-AllergyIntolerance-1"]},"identifier":[{"system":"https://tools.ietf.org/html/rfc4122","value":"06d65f0f-117a-43c6-84ea-f28c3bd664a2"}],"clinicalStatus":"active","verificationStatus":"confirmed","code":{"coding":[{"system":"http://snomed.info/sct","code":"716186003","display":"No known allergy"}]},"patient":{"reference":"urn:uuid:1c5a26fd-b317-4fc0-8e0d-7ed8c75d34d8"}}},{"fullUrl":"urn:uuid:9b1cf5d4-2445-4c99-994a-b75b1a13a4f3","resource":{"resourceType":"List","id":"9b1cf5d4-2445-4c99-994a-b75b1a13a4f3","meta":{"profile":["https://fhir.nhs.uk/STU3/StructureDefinition/CareConnect-ITK-Medication-List-1"]},"identifier":[{"system":"https://tools.ietf.org/html/rfc4122","value":"09b9a4ff-22d7-4ad4-80d0-a608474325d5"}],"status":"current","mode":"snapshot","code":{"coding":[{"system":"http://snomed.info/sct","code":"1102411000000102","display":"Active medications"}]},"subject":{"reference":"urn:uuid:1c5a26fd-b317-4fc0-8e0d-7ed8c75d34d8"},"encounter":{"reference":"urn:uuid:c37a3a1a-0895-44c4-a79a-f7b7bb425e47"},"source":{"reference":"urn:uuid:ba20623e-6d70-420e-bbf9-e4b6ac0f50b3"},"entry":[{"item":{"reference":"urn:uuid:8006a0b5-4081-40f0-8b00-ccc22489ce24"}},{"item":{"reference":"urn:uuid:467c0506-a1eb-4724-acf7-eef207d84ae3"}}]}},{"fullUrl":"urn:uuid:8006a0b5-4081-40f0-8b00-ccc22489ce24","resource":{"resourceType":"MedicationStatement","id":"8006a0b5-4081-40f0-8b00-ccc22489ce24","meta":{"profile":["https://fhir.nhs.uk/STU3/StructureDefinition/CareConnect-ITK-MedicationStatement-1"]},"extension":[{"url":"https://fhir.hl7.org.uk/STU3/StructureDefinition/Extension-CareConnect-MedicationChangeSummary-1","extension":[{"url":"status","valueCode":"Continued"}]}],"identifier":[{"system":"https://tools.ietf.org/html/rfc4122","value":"609d5288-94d2-4c51-a23a-d52f7c9d34e5"}],"status":"active","medicationReference":{"reference":"urn:uuid:5a3fb02a-da72-4cdb-b330-7eaee31312de"},"subject":{"reference":"urn:uuid:1c5a26fd-b317-4fc0-8e0d-7ed8c75d34d8"},"taken":"y","dosage":[{"text":"Take one 10 mg tablet daily.","route":{"coding":[{"system":"http://snomed.info/sct","code":"260548002","display":"Oral"}]}}]}},{"fullUrl":"urn:uuid:467c0506-a1eb-4724-acf7-eef207d84ae3","resource":{"resourceType":"MedicationStatement","id":"467c0506-a1eb-4724-acf7-eef207d84ae3","meta":{"profile":["https://fhir.nhs.uk/STU3/StructureDefinition/CareConnect-ITK-MedicationStatement-1"]},"extension":[{"url":"https://fhir.hl7.org.uk/STU3/StructureDefinition/Extension-CareConnect-MedicationChangeSummary-1","extension":[{"url":"status","valueCode":"Added"}]}],"identifier":[{"system":"https://tools.ietf.org/html/rfc4122","value":"4aa3342b-9b27-4c2e-ac7b-23dcfcfb7a0d"}],"status":"active","medicationReference":{"reference":"urn:uuid:f84d8ee4-a661-47b1-b23a-bbb5b2829791"},"subject":{"reference":"urn:uuid:1c5a26fd-b317-4fc0-8e0d-7ed8c75d34d8"},"taken":"y","dosage":[{"text":"Take three 2mg tablets daily for 7 days","route":{"coding":[{"system":"http://snomed.info/sct","code":"260548002","display":"Oral"}]}}]}},{"fullUrl":"urn:uuid:5a3fb02a-da72-4cdb-b330-7eaee31312de","resource":{"resourceType":"Medication","id":"5a3fb02a-da72-4cdb-b330-7eaee31312de","meta":{"profile":["https://fhir.nhs.uk/STU3/StructureDefinition/CareConnect-ITK-Medication-1"]},"code":{"coding":[{"system":"http://snomed.info/sct","code":"23485211000001100","display":"Olanzapine 10mg tablets (Accord Healthcare Ltd)"}]},"form":{"coding":[{"system":"http://snomed.info/sct","code":"385055001","display":"Tablet"}]}}},{"fullUrl":"urn:uuid:f84d8ee4-a661-47b1-b23a-bbb5b2829791","resource":{"resourceType":"Medication","id":"f84d8ee4-a661-47b1-b23a-bbb5b2829791","meta":{"profile":["https://fhir.nhs.uk/STU3/StructureDefinition/CareConnect-ITK-Medication-1"]},"code":{"coding":[{"system":"http://snomed.info/sct","code":"889411000001101","display":"Diazepam 2mg tablets (A A H Pharmaceuticals Ltd)"}]},"form":{"coding":[{"system":"http://snomed.info/sct","code":"385055001","display":"Tablet"}]}}},{"fullUrl":"urn:uuid:f5ad3779-20b7-4dd4-b73e-251b079936c3","resource":{"resourceType":"List","id":"f5ad3779-20b7-4dd4-b73e-251b079936c3","meta":{"profile":["https://fhir.nhs.uk/STU3/StructureDefinition/CareConnect-ITK-Procedure-List-1"]},"identifier":[{"system":"https://tools.ietf.org/html/rfc4122","value":"b3eb40e0-e0fd-4dc6-bbbd-b1e3731e7d8f"}],"status":"current","mode":"snapshot","code":{"coding":[{"system":"http://snomed.info/sct","code":"887171000000109","display":"Procedures"}]},"subject":{"reference":"urn:uuid:1c5a26fd-b317-4fc0-8e0d-7ed8c75d34d8"},"encounter":{"reference":"urn:uuid:c37a3a1a-0895-44c4-a79a-f7b7bb425e47"},"source":{"reference":"urn:uuid:ba20623e-6d70-420e-bbf9-e4b6ac0f50b3"},"entry":[{"item":{"reference":"urn:uuid:a3dc2263-d9f7-4ae4-bfcc-e39951b3df26"}}]}},{"fullUrl":"urn:uuid:a3dc2263-d9f7-4ae4-bfcc-e39951b3df26","resource":{"resourceType":"Procedure","id":"a3dc2263-d9f7-4ae4-bfcc-e39951b3df26","meta":{"profile":["https://fhir.nhs.uk/STU3/StructureDefinition/CareConnect-ITK-Procedure-1"]},"identifier":[{"system":"https://tools.ietf.org/html/rfc4122","value":"e58dc578-59d6-4fef-a4fd-471d5ee81ea5"}],"status":"completed","code":{"coding":[{"system":"http://snomed.info/sct","code":"89732002","display":"Drug of abuse screen"}]},"subject":{"reference":"urn:uuid:1c5a26fd-b317-4fc0-8e0d-7ed8c75d34d8"},"context":{"reference":"urn:uuid:c37a3a1a-0895-44c4-a79a-f7b7bb425e47"}}},{"fullUrl":"urn:uuid:1a7c1ae4-cc97-46cf-b307-63ca0cc30d07","resource":{"resourceType":"List","id":"1a7c1ae4-cc97-46cf-b307-63ca0cc30d07","meta":{"profile":["https://fhir.nhs.uk/STU3/StructureDefinition/CareConnect-ITK-Condition-List-1"]},"identifier":[{"system":"https://tools.ietf.org/html/rfc4122","value":"90e18cfe-6960-4861-9c83-f0057b759a23"}],"status":"current","mode":"snapshot","code":{"coding":[{"system":"http://snomed.info/sct","code":"887161000000102","display":"Diagnoses"}]},"subject":{"reference":"urn:uuid:1c5a26fd-b317-4fc0-8e0d-7ed8c75d34d8"},"encounter":{"reference":"urn:uuid:c37a3a1a-0895-44c4-a79a-f7b7bb425e47"},"source":{"reference":"urn:uuid:ba20623e-6d70-420e-bbf9-e4b6ac0f50b3"},"entry":[{"item":{"reference":"urn:uuid:ebe24eb4-72ff-4300-ac05-dbc69b73ce14"}}]}},{"fullUrl":"urn:uuid:ebe24eb4-72ff-4300-ac05-dbc69b73ce14","resource":{"resourceType":"Condition","id":"ebe24eb4-72ff-4300-ac05-dbc69b73ce14","meta":{"profile":["https://fhir.nhs.uk/STU3/StructureDefinition/CareConnect-ITK-Condition-1"]},"identifier":[{"system":"https://tools.ietf.org/html/rfc4122","value":"9f8cef2a-d77e-41a6-8c47-5e1e70570321"}],"clinicalStatus":"active","code":{"coding":[{"system":"http://snomed.info/sct","code":"64905009","display":"Paranoid schizophrenia"}]},"subject":{"reference":"urn:uuid:1c5a26fd-b317-4fc0-8e0d-7ed8c75d34d8"},"context":{"reference":"urn:uuid:c37a3a1a-0895-44c4-a79a-f7b7bb425e47"}}},{"fullUrl":"urn:uuid:1c5a26fd-b317-4fc0-8e0d-7ed8c75d34d8","resource":{"resourceType":"Patient","id":"1c5a26fd-b317-4fc0-8e0d-7ed8c75d34d8","meta":{"profile":["https://fhir.hl7.org.uk/STU3/StructureDefinition/CareConnect-Patient-1"]},"identifier":[{"extension":[{"url":"https://fhir.hl7.org.uk/STU3/StructureDefinition/Extension-CareConnect-NHSNumberVerificationStatus-1","valueCodeableConcept":{"coding":[{"system":"https://fhir.hl7.org.uk/STU3/CodeSystem/CareConnect-NHSNumberVerificationStatus-1","code":"01","display":"Number present and verified"}]}}],"system":"https://fhir.nhs.uk/Id/nhs-number","value":"9996668887"}],"name":[{"use":"official","family":"Black","given":["Elizabeth"],"prefix":["Ms"]},{"use":"usual","family":"Black","given":["Liz"],"prefix":["Ms"]}],"gender":"female","birthDate":"1969-06-09","address":[{"use":"home","line":["21, Grove Street, Overtown"],"city":"Leeds","postalCode":"LS21 4GG"}]}},{"fullUrl":"urn:uuid:4d6804c1-6e9a-4ddd-bf4d-bec9f6f13de7","resource":{"resourceType":"Practitioner","id":"4d6804c1-6e9a-4ddd-bf4d-bec9f6f13de7","meta":{"profile":["https://fhir.hl7.org.uk/STU3/StructureDefinition/CareConnect-Practitioner-1"]},"identifier":[{"system":"https://fhir.nhs.uk/Id/sds-user-id","value":"GP12345600"}],"name":[{"family":"Lozo","given":["James"],"prefix":["Dr"]}]}},{"fullUrl":"urn:uuid:ba20623e-6d70-420e-bbf9-e4b6ac0f50b3","resource":{"resourceType":"Practitioner","id":"ba20623e-6d70-420e-bbf9-e4b6ac0f50b3","meta":{"profile":["https://fhir.hl7.org.uk/STU3/StructureDefinition/CareConnect-Practitioner-1"]},"identifier":[{"system":"https://fhir.nhs.uk/Id/local-practitioner-identifier","value":"9222477"}],"name":[{"family":"Scott","given":["Mike"],"prefix":["Dr"]}],"telecom":[{"system":"phone","value":"0113 111225","use":"work"}]}},{"fullUrl":"urn:uuid:3572fd25-27ad-44d4-80a7-8e23c730e2f2","resource":{"resourceType":"Practitioner","id":"3572fd25-27ad-44d4-80a7-8e23c730e2f2","meta":{"profile":["https://fhir.hl7.org.uk/STU3/StructureDefinition/CareConnect-Practitioner-1"]},"identifier":[{"system":"https://fhir.nhs.uk/Id/sds-user-id","value":"033345750518"}],"name":[{"family":"Gillingham","given":["Gay"],"prefix":["Mrs"]}]}},{"fullUrl":"urn:uuid:1858f474-c235-4e73-ab8d-a0a2236613d6","resource":{"resourceType":"Practitioner","id":"1858f474-c235-4e73-ab8d-a0a2236613d6","meta":{"profile":["https://fhir.hl7.org.uk/STU3/StructureDefinition/CareConnect-Practitioner-1"]},"name":[{"family":"Beck","given":["Daniel"],"prefix":["Dr"]}],"telecom":[{"system":"phone","value":"0113 3246666","use":"work"}]}},{"fullUrl":"urn:uuid:001c858c-3e3d-4b58-be94-0f46c79d8bae","resource":{"resourceType":"PractitionerRole","id":"001c858c-3e3d-4b58-be94-0f46c79d8bae","meta":{"profile":["https://fhir.hl7.org.uk/STU3/StructureDefinition/CareConnect-PractitionerRole-1"]},"practitioner":{"reference":"urn:uuid:4d6804c1-6e9a-4ddd-bf4d-bec9f6f13de7"},"organization":{"reference":"urn:uuid:0a8c9568-62d7-49f0-ab13-313215c497ab"},"code":[{"coding":[{"system":"https://fhir.hl7.org.uk/STU3/CodeSystem/CareConnect-SDSJobRoleName-1","code":"R0260","display":"General Medical Practitioner"}]}]}},{"fullUrl":"urn:uuid:18e9c262-e21a-4b32-bf59-eae2e549f5a4","resource":{"resourceType":"PractitionerRole","id":"18e9c262-e21a-4b32-bf59-eae2e549f5a4","meta":{"profile":["https://fhir.hl7.org.uk/STU3/StructureDefinition/CareConnect-PractitionerRole-1"]},"practitioner":{"reference":"urn:uuid:ba20623e-6d70-420e-bbf9-e4b6ac0f50b3"},"organization":{"reference":"urn:uuid:35e7fc14-f7cb-4b6d-bb41-2ad7f45c501c"},"code":[{"coding":[{"system":"https://fhir.hl7.org.uk/STU3/CodeSystem/CareConnect-SDSJobRoleName-1","code":"R0110","display":"Specialist Registrar"}]}],"specialty":[{"coding":[{"system":"http://snomed.info/sct","code":"408467006","display":"Adult mental illness - speciality"}]}]}},{"fullUrl":"urn:uuid:5eb010c9-4e22-43cb-a0d8-09aa382903c7","resource":{"resourceType":"PractitionerRole","id":"5eb010c9-4e22-43cb-a0d8-09aa382903c7","meta":{"profile":["https://fhir.hl7.org.uk/STU3/StructureDefinition/CareConnect-PractitionerRole-1"]},"practitioner":{"reference":"urn:uuid:3572fd25-27ad-44d4-80a7-8e23c730e2f2"},"organization":{"reference":"urn:uuid:35e7fc14-f7cb-4b6d-bb41-2ad7f45c501c"},"code":[{"coding":[{"system":"https://fhir.hl7.org.uk/STU3/CodeSystem/CareConnect-SDSJobRoleName-1","code":"R0050","display":"Consultant"}],"text":"Community Team Member"}]}},{"fullUrl":"urn:uuid:d53edede-fcb0-4bdd-9724-e4e5745f1b63","resource":{"resourceType":"PractitionerRole","id":"d53edede-fcb0-4bdd-9724-e4e5745f1b63","meta":{"profile":["https://fhir.hl7.org.uk/STU3/StructureDefinition/CareConnect-PractitionerRole-1"]},"practitioner":{"reference":"urn:uuid:1858f474-c235-4e73-ab8d-a0a2236613d6"},"organization":{"reference":"urn:uuid:35e7fc14-f7cb-4b6d-bb41-2ad7f45c501c"},"code":[{"coding":[{"system":"https://fhir.hl7.org.uk/STU3/CodeSystem/CareConnect-SDSJobRoleName-1","code":"R0050","display":"Consultant"}]}]}},{"fullUrl":"urn:uuid:0a8c9568-62d7-49f0-ab13-313215c497ab","resource":{"resourceType":"Organization","id":"0a8c9568-62d7-49f0-ab13-313215c497ab","meta":{"profile":["https://fhir.hl7.org.uk/STU3/StructureDefinition/CareConnect-Organization-1"]},"identifier":[{"system":"https://fhir.nhs.uk/Id/ods-organization-code","value":"GP123456"}],"name":"MGP Medical Centre","address":[{"line":["1 MGP House, Overtown"],"city":"Leeds","postalCode":"LS21 7PA"}]}},{"fullUrl":"urn:uuid:35e7fc14-f7cb-4b6d-bb41-2ad7f45c501c","resource":{"resourceType":"Organization","id":"35e7fc14-f7cb-4b6d-bb41-2ad7f45c501c","meta":{"profile":["https://fhir.hl7.org.uk/STU3/StructureDefinition/CareConnect-Organization-1"]},"identifier":[{"system":"https://fhir.nhs.uk/Id/ods-organization-code","value":"RGDA"}],"name":"Leeds Mental Health NHS Trust","address":[{"line":["Twenty One Fifty, Thorpe Park"],"city":"Leeds","postalCode":"LS15 8ZB"}]}},{"fullUrl":"urn:uuid:d19c145a-9fa4-401d-89cc-4024c1a9b74a","resource":{"resourceType":"Location","id":"d19c145a-9fa4-401d-89cc-4024c1a9b74a","meta":{"profile":["https://fhir.hl7.org.uk/STU3/StructureDefinition/CareConnect-Location-1"]},"identifier":[{"system":"https://fhir.nhs.uk/Id/local-location-identifier","value":"RR8ALL"}],"name":"Allerton Ward","managingOrganization":{"reference":"urn:uuid:35e7fc14-f7cb-4b6d-bb41-2ad7f45c501c"}}}]}