{"resourceType":"Bundle","id":"a5b3144e-95ef-443b-97ed-a143e34f170a","meta":{"versionId":"1d0acfe9-d439-4c9b-9246-95f3150c32e9","lastUpdated":"2018-11-08T13:46:37.969+00:00"},"type":"searchset","total":1,"entry":[{"fullUrl":"[baseURL]/Observation/c94a3384-44b6-48a7-95ae-bcf1f1eb8221","resource":{"resourceType":"Observation","id":"c94a3384-44b6-48a7-95ae-bcf1f1eb8221","meta":{"profile":["https://fhir.nhs.uk/STU3/StructureDefinition/CareConnect-NEWS2-Observation-1"]},"status":"final","category":[{"coding":[{"system":"http://hl7.org/fhir/observation-category","code":"survey","display":"Survey"}]}],"code":{"coding":[{"system":"http://snomed.info/sct","code":"1104051000000101","display":"Royal College of Physicians NEWS2 (National Early Warning Score 2) total score"}]},"subject":{"reference":"Patient/4f78d392-c9e0-4f1f-9ab6-57d387838690"},"effectiveDateTime":"2018-10-04T14:17:59+01:00","performer":[{"reference":"Performer/2360aba6-8561-4a22-bbbf-afc08e750146"},{"reference":"Organization/cd5f7770-6249-4f5d-ad8e-d0bb1446a4d9"}],"valueQuantity":{"value":6}}},{"fullUrl":"[baseURL]/Practitioner/2360aba6-8561-4a22-bbbf-afc08e750146","resource":{"resourceType":"Practitioner","id":"2360aba6-8561-4a22-bbbf-afc08e750146","meta":{"profile":["https://fhir.hl7.org.uk/STU3/StructureDefinition/CareConnect-Practitioner-1"]},"identifier":[{"system":"https://fhir.hl7.org.uk/Id/gmc-number","value":"6122477"}],"name":[{"family":"Rastall","given":["Paul"],"prefix":["Dr"]}],"telecom":[{"system":"phone","value":"01136323200","use":"work"}],"gender":"male"}},{"fullUrl":"[baseURL]/Organization/cd5f7770-6249-4f5d-ad8e-d0bb1446a4d9","resource":{"resourceType":"Organization","id":"cd5f7770-6249-4f5d-ad8e-d0bb1446a4d9","meta":{"profile":["https://fhir.hl7.org.uk/STU3/StructureDefinition/CareConnect-Organization-1"]},"identifier":[{"system":"https://fhir.nhs.uk/Id/ods-organization-code","value":"ABC123"}],"name":"ANYTOWN ROYAL INFIRMARY","telecom":[{"system":"phone","value":"01134875516"}],"address":[{"line":["1 High Street"],"city":"ANYTOWN","postalCode":"LS1 9AM"}]}},{"fullUrl":"[baseURL]/Patient/4f78d392-c9e0-4f1f-9ab6-57d387838690","resource":{"resourceType":"Patient","id":"4f78d392-c9e0-4f1f-9ab6-57d387838690","meta":{"profile":["https://fhir.hl7.org.uk/STU3/StructureDefinition/CareConnect-Patient-1"]},"identifier":[{"extension":[{"url":"https://fhir.hl7.org.uk/STU3/StructureDefinition/Extension-CareConnect-NHSNumberVerificationStatus-1","valueCodeableConcept":{"coding":[{"system":"https://fhir.hl7.org.uk/STU3/CodeSystem/CareConnect-NHSNumberVerificationStatus-1","code":"01","display":"Number present and verified"}]}}],"system":"https://fhir.nhs.uk/Id/nhs-number","value":"2378954317"}],"name":[{"use":"official","text":"Mr William Smith","family":"SMITH","given":["William"],"prefix":["Mr"]}],"gender":"male","birthDate":"1966-02-04","address":[{"use":"home","line":["14 Sunny Mews"],"city":"ANYTOWN","district":"WEST YORKSHIRE","postalCode":"LS17 4NK"}],"maritalStatus":{"coding":[{"system":"http://hl7.org/fhir/v3/MaritalStatus","code":"M","display":"Married"}]}}}]}