{"resourceType":"Bundle","id":"a5b3144e-95ef-443b-97ed-a143e34f170a","meta":{"versionId":"1d0acfe9-d439-4c9b-9246-95f3150c32e9","lastUpdated":"2018-11-08T13:46:37.969+00:00"},"type":"searchset","total":1,"entry":[{"fullUrl":"[baseURL]/Observation/c94a3384-44b6-48a7-95ae-bcf1f1eb8889","resource":{"resourceType":"Observation","contained":[{"resourceType":"Observation","id":"1","meta":{"profile":["https://fhir.hl7.org.uk/STU3/StructureDefinition/CareConnect-Subscore-Observation-1"]},"status":"final","category":[{"coding":[{"system":"http://hl7.org/fhir/observation-category","code":"survey","display":"Survey"}]}],"code":{"coding":[{"system":"http://snomed.info/sct","code":"1104301000000104","display":"Royal College of Physicians National Early Warning Score 2 - respiration rate score"}]},"subject":{"reference":"Patient/4f78d392-c9e0-4f1f-9ab6-57d387838690"},"effectiveDateTime":"2018-10-04T14:17:59+01:00","performer":[{"reference":"Performer/2360aba6-8561-4a22-bbbf-afc08e750146"},{"reference":"Organization/cd5f7770-6249-4f5d-ad8e-d0bb1446a4d9"}],"valueQuantity":{"value":2},"related":[{"type":"derived-from","target":{"reference":"Observation/3a3fce15-32d6-4911-86f9-6f849066e0c1"}}]},{"resourceType":"Observation","id":"2","meta":{"profile":["https://fhir.hl7.org.uk/STU3/StructureDefinition/CareConnect-Subscore-Observation-1"]},"status":"final","category":[{"coding":[{"system":"http://hl7.org/fhir/observation-category","code":"survey","display":"Survey"}]}],"code":{"coding":[{"system":"http://snomed.info/sct","code":"1104311000000102","display":"Royal College of Physicians National Early Warning Score 2 - oxygen saturation scale 1 score"}]},"subject":{"reference":"Patient/4f78d392-c9e0-4f1f-9ab6-57d387838690"},"effectiveDateTime":"2018-10-04T14:17:59+01:00","performer":[{"reference":"Performer/2360aba6-8561-4a22-bbbf-afc08e750146"},{"reference":"Organization/cd5f7770-6249-4f5d-ad8e-d0bb1446a4d9"}],"valueQuantity":{"value":2},"related":[{"type":"derived-from","target":{"reference":"Observation/35a1483b-4d04-4907-9f4e-c69ae409a1ea"}}]},{"resourceType":"Observation","id":"3","meta":{"profile":["https://fhir.hl7.org.uk/STU3/StructureDefinition/CareConnect-Subscore-Observation-1"]},"status":"final","category":[{"coding":[{"system":"http://hl7.org/fhir/observation-category","code":"survey","display":"Survey"}]}],"code":{"coding":[{"system":"http://snomed.info/sct","code":"1104331000000105","display":"Royal College of Physicians National Early Warning Score 2 - air or oxygen score"}]},"subject":{"reference":"Patient/4f78d392-c9e0-4f1f-9ab6-57d387838690"},"effectiveDateTime":"2018-10-04T14:17:59+01:00","performer":[{"reference":"Performer/2360aba6-8561-4a22-bbbf-afc08e750146"},{"reference":"Organization/cd5f7770-6249-4f5d-ad8e-d0bb1446a4d9"}],"valueQuantity":{"value":0},"related":[{"type":"derived-from","target":{"reference":"Observation/0b58c56e-6d73-4f4e-baac-4ebdb655ba86"}}]},{"resourceType":"Observation","id":"4","meta":{"profile":["https://fhir.hl7.org.uk/STU3/StructureDefinition/CareConnect-Subscore-Observation-1"]},"status":"final","category":[{"coding":[{"system":"http://hl7.org/fhir/observation-category","code":"survey","display":"Survey"}]}],"code":{"coding":[{"system":"http://snomed.info/sct","code":"1104351000000103","display":"Royal College of Physicians National Early Warning Score 2 - pulse score"}]},"subject":{"reference":"Patient/4f78d392-c9e0-4f1f-9ab6-57d387838690"},"effectiveDateTime":"2018-10-04T14:17:59+01:00","performer":[{"reference":"Performer/2360aba6-8561-4a22-bbbf-afc08e750146"},{"reference":"Organization/cd5f7770-6249-4f5d-ad8e-d0bb1446a4d9"}],"valueQuantity":{"value":1},"related":[{"type":"derived-from","target":{"reference":"Observation/a1f2519e-3cb1-4ba4-820a-57e47334b655"}}]},{"resourceType":"Observation","id":"5","meta":{"profile":["https://fhir.hl7.org.uk/STU3/StructureDefinition/CareConnect-Subscore-Observation-1"]},"status":"final","category":[{"coding":[{"system":"http://hl7.org/fhir/observation-category","code":"survey","display":"Survey"}]}],"code":{"coding":[{"system":"http://snomed.info/sct","code":"1104341000000101","display":"Royal College of Physicians National Early Warning Score 2 - systolic blood pressure score"}]},"subject":{"reference":"Patient/4f78d392-c9e0-4f1f-9ab6-57d387838690"},"effectiveDateTime":"2018-10-04T14:17:59+01:00","performer":[{"reference":"Performer/2360aba6-8561-4a22-bbbf-afc08e750146"},{"reference":"Organization/cd5f7770-6249-4f5d-ad8e-d0bb1446a4d9"}],"valueQuantity":{"value":0},"related":[{"type":"derived-from","target":{"reference":"Observation/f80fc9e3-a4fe-400e-8fe4-83f7d5616ea2"}}]},{"resourceType":"Observation","id":"6","meta":{"profile":["https://fhir.hl7.org.uk/STU3/StructureDefinition/CareConnect-Subscore-Observation-1"]},"status":"final","category":[{"coding":[{"system":"http://hl7.org/fhir/observation-category","code":"survey","display":"Survey"}]}],"code":{"coding":[{"system":"http://snomed.info/sct","code":"1104361000000100","display":"Royal College of Physicians National Early Warning Score 2 - consciousness score"}]},"subject":{"reference":"Patient/4f78d392-c9e0-4f1f-9ab6-57d387838690"},"effectiveDateTime":"2018-10-04T14:17:59+01:00","performer":[{"reference":"Performer/2360aba6-8561-4a22-bbbf-afc08e750146"},{"reference":"Organization/cd5f7770-6249-4f5d-ad8e-d0bb1446a4d9"}],"valueQuantity":{"value":0},"related":[{"type":"derived-from","target":{"reference":"Observation/bd789063-ba92-4dd9-8abc-246f4aef8d47"}}]},{"resourceType":"Observation","id":"7","meta":{"profile":["https://fhir.hl7.org.uk/STU3/StructureDefinition/CareConnect-Subscore-Observation-1"]},"status":"final","category":[{"coding":[{"system":"http://hl7.org/fhir/observation-category","code":"survey","display":"Survey"}]}],"code":{"coding":[{"system":"http://snomed.info/sct","code":"1104371000000107","display":"Royal College of Physicians National Early Warning Score 2 - temperature score"}]},"subject":{"reference":"Patient/4f78d392-c9e0-4f1f-9ab6-57d387838690"},"effectiveDateTime":"2018-10-04T14:17:59+01:00","performer":[{"reference":"Performer/2360aba6-8561-4a22-bbbf-afc08e750146"},{"reference":"Organization/cd5f7770-6249-4f5d-ad8e-d0bb1446a4d9"}],"valueQuantity":{"value":1},"related":[{"type":"derived-from","target":{"reference":"Observation/dbbad20f-e696-405e-8c98-be0cdcc5406c"}}]}],"status":"final","category":[{"coding":[{"system":"http://hl7.org/fhir/observation-category","code":"survey","display":"Survey"}]}],"code":{"coding":[{"system":"http://snomed.info/sct","code":"1104051000000101","display":"Royal College of Physicians NEWS2 (National Early Warning Score 2) total score"}]},"subject":{"reference":"Patient/4f78d392-c9e0-4f1f-9ab6-57d387838690"},"effectiveDateTime":"2018-10-04T14:17:59+01:00","performer":[{"reference":"Performer/2360aba6-8561-4a22-bbbf-afc08e750146"},{"reference":"Organization/cd5f7770-6249-4f5d-ad8e-d0bb1446a4d9"}],"valueQuantity":{"value":6},"related":[{"type":"derived-from","target":{"reference":"#1"}},{"type":"derived-from","target":{"reference":"#2"}},{"type":"derived-from","target":{"reference":"#3"}},{"type":"derived-from","target":{"reference":"#4"}},{"type":"derived-from","target":{"reference":"#5"}},{"type":"derived-from","target":{"reference":"#6"}},{"type":"derived-from","target":{"reference":"#7"}}]}},{"fullUrl":"[baseURL]/Observation/3a3fce15-32d6-4911-86f9-6f849066e0c1","resource":{"resourceType":"Observation","id":"3a3fce15-32d6-4911-86f9-6f849066e0c1","meta":{"profile":["https://fhir.hl7.org.uk/STU3/StructureDefinition/CareConnect-RespiratoryRate-Observation-1"]},"status":"final","category":[{"coding":[{"system":"http://hl7.org/fhir/observation-category","code":"vital-signs","display":"Vital Signs"}]}],"code":{"coding":[{"system":"http://loinc.org","code":"9279-1","display":"Respiratory Rate"},{"system":"http://snomed.info/sct","code":"86290005","display":"Respiratory rate"}]},"subject":{"reference":"Patient/4f78d392-c9e0-4f1f-9ab6-57d387838690"},"effectiveDateTime":"2018-10-04T14:17:59+01:00","performer":[{"reference":"Performer/2360aba6-8561-4a22-bbbf-afc08e750146"},{"reference":"Organization/cd5f7770-6249-4f5d-ad8e-d0bb1446a4d9"}],"valueQuantity":{"value":21,"unit":"/min","system":"http://unitsofmeasure.org"}}},{"fullUrl":"[baseURL]/Observation/a1f2519e-3cb1-4ba4-820a-57e47334b655","resource":{"resourceType":"Observation","id":"a1f2519e-3cb1-4ba4-820a-57e47334b655","meta":{"profile":["https://fhir.hl7.org.uk/STU3/StructureDefinition/CareConnect-HeartRate-Observation-1"]},"status":"final","category":[{"coding":[{"system":"http://hl7.org/fhir/observation-category","code":"vital-signs","display":"Vital Signs"}]}],"code":{"coding":[{"system":"http://loinc.org","code":"8867-4","display":"Heart rate"},{"system":"http://snomed.info/sct","code":"364075005","display":"Heart rate"},{"system":"http://snomed.info/sct","code":"78564009","display":"Pulse rate","userSelected":true}]},"subject":{"reference":"Patient/4f78d392-c9e0-4f1f-9ab6-57d387838690"},"effectiveDateTime":"2018-10-04T14:17:59+01:00","performer":[{"reference":"Performer/2360aba6-8561-4a22-bbbf-afc08e750146"},{"reference":"Organization/cd5f7770-6249-4f5d-ad8e-d0bb1446a4d9"}],"valueQuantity":{"value":95,"unit":"/min","system":"http://unitsofmeasure.org"}}},{"fullUrl":"[baseURL]/Observation/35a1483b-4d04-4907-9f4e-c69ae409a1ea","resource":{"resourceType":"Observation","id":"35a1483b-4d04-4907-9f4e-c69ae409a1ea","meta":{"profile":["https://fhir.hl7.org.uk/STU3/StructureDefinition/CareConnect-OxygenSaturation-Observation-1"]},"status":"final","category":[{"coding":[{"system":"http://hl7.org/fhir/observation-category","code":"vital-signs","display":"Vital Signs"}]}],"code":{"coding":[{"system":"http://loinc.org","code":"59408-5","display":"Oxygen saturation in Arterial blood by Pulse oximetry"},{"system":"http://snomed.info/sct","code":"103228002","display":"Hemoglobin saturation with oxygen"}]},"subject":{"reference":"Patient/4f78d392-c9e0-4f1f-9ab6-57d387838690"},"effectiveDateTime":"2018-10-04T14:17:59+01:00","performer":[{"reference":"Performer/2360aba6-8561-4a22-bbbf-afc08e750146"},{"reference":"Organization/cd5f7770-6249-4f5d-ad8e-d0bb1446a4d9"}],"valueQuantity":{"value":93,"unit":"%","system":"http://unitsofmeasure.org"}}},{"fullUrl":"[baseURL]/Observation/0b58c56e-6d73-4f4e-baac-4ebdb655ba86","resource":{"resourceType":"Observation","id":"0b58c56e-6d73-4f4e-baac-4ebdb655ba86","meta":{"profile":["https://fhir.hl7.org.uk/STU3/StructureDefinition/CareConnect-InspiredOxygen-Observation-1"]},"status":"final","code":{"coding":[{"system":"http://snomed.info/sct","code":"722742002","display":"Breathing room air"}]},"subject":{"reference":"Patient/4f78d392-c9e0-4f1f-9ab6-57d387838690"},"effectiveDateTime":"2018-10-04T14:17:59+01:00","performer":[{"reference":"Performer/2360aba6-8561-4a22-bbbf-afc08e750146"},{"reference":"Organization/cd5f7770-6249-4f5d-ad8e-d0bb1446a4d9"}]}},{"fullUrl":"[baseURL]/Observation/dbbad20f-e696-405e-8c98-be0cdcc5406c","resource":{"resourceType":"Observation","id":"dbbad20f-e696-405e-8c98-be0cdcc5406c","meta":{"profile":["https://fhir.hl7.org.uk/STU3/StructureDefinition/CareConnect-BodyTemperature-Observation-1"]},"status":"final","category":[{"coding":[{"system":"http://hl7.org/fhir/observation-category","code":"vital-signs","display":"Vital Signs"}]}],"code":{"coding":[{"system":"http://loinc.org","code":"8310-5","display":"Body temperature"},{"system":"http://snomed.info/sct","code":"276885007","display":"Core body temperature"}]},"subject":{"reference":"Patient/4f78d392-c9e0-4f1f-9ab6-57d387838690"},"effectiveDateTime":"2018-10-04T14:17:59+01:00","performer":[{"reference":"Performer/2360aba6-8561-4a22-bbbf-afc08e750146"},{"reference":"Organization/cd5f7770-6249-4f5d-ad8e-d0bb1446a4d9"}],"valueQuantity":{"value":38.5,"unit":"Cel","system":"http://unitsofmeasure.org"}}},{"fullUrl":"[baseURL]/Observation/f80fc9e3-a4fe-400e-8fe4-83f7d5616ea2","resource":{"resourceType":"Observation","id":"f80fc9e3-a4fe-400e-8fe4-83f7d5616ea2","meta":{"profile":["https://fhir.hl7.org.uk/STU3/StructureDefinition/CareConnect-BloodPressure-Observation-1"]},"status":"final","category":[{"coding":[{"system":"http://hl7.org/fhir/observation-category","code":"vital-signs","display":"Vital Signs"}]}],"code":{"coding":[{"system":"http://loinc.org","code":"85354-9","display":"Blood pressure panel with all children optional"},{"system":"http://snomed.info/sct","code":"75367002","display":"Blood pressure"}]},"subject":{"reference":"Patient/4f78d392-c9e0-4f1f-9ab6-57d387838690"},"effectiveDateTime":"2018-10-04T14:17:59+01:00","performer":[{"reference":"Performer/2360aba6-8561-4a22-bbbf-afc08e750146"},{"reference":"Organization/cd5f7770-6249-4f5d-ad8e-d0bb1446a4d9"}],"bodySite":{"coding":[{"system":"http://snomed.info/sct","code":"368209003","display":"Right arm"}]},"component":[{"code":{"coding":[{"system":"http://loinc.org","code":"8480-6","display":"Systolic blood pressure"},{"system":"http://snomed.info/sct","code":"72313002","display":"Systolic blood pressure"}]},"valueQuantity":{"value":120,"unit":"mmHg","system":"http://unitsofmeasure.org"}},{"code":{"coding":[{"system":"http://loinc.org","code":"8462-4","display":"Diastolic blood pressure"},{"system":"http://snomed.info/sct","code":"1091811000000102","display":"Diastolic arterial pressure"}]},"valueQuantity":{"value":60,"unit":"mmHg","system":"http://unitsofmeasure.org"}}]}},{"fullUrl":"[baseURL]/Observation/bd789063-ba92-4dd9-8abc-246f4aef8d47","resource":{"resourceType":"Observation","id":"bd789063-ba92-4dd9-8abc-246f4aef8d47","meta":{"profile":["hhttps://fhir.hl7.org.uk/STU3/StructureDefinition/CareConnect-ACPVU-Observation-1"]},"status":"final","code":{"coding":[{"system":"http://snomed.info/sct","code":"1104441000000107","display":"Alert Confusion Voice Pain Unresponsiveness scale"}]},"subject":{"reference":"Patient/4f78d392-c9e0-4f1f-9ab6-57d387838690"},"effectiveDateTime":"2018-10-04T14:17:59+01:00","performer":[{"reference":"Performer/2360aba6-8561-4a22-bbbf-afc08e750146"},{"reference":"Organization/cd5f7770-6249-4f5d-ad8e-d0bb1446a4d9"}],"valueCodeableConcept":{"coding":[{"system":"http://snomed.info/sct","code":"248234008","display":"Mentally alert"}]}}},{"fullUrl":"[baseURL]/Practitioner/2360aba6-8561-4a22-bbbf-afc08e750146","resource":{"resourceType":"Practitioner","id":"2360aba6-8561-4a22-bbbf-afc08e750146","meta":{"profile":["https://fhir.hl7.org.uk/STU3/StructureDefinition/CareConnect-Practitioner-1"]},"identifier":[{"system":"https://fhir.hl7.org.uk/Id/gmc-number","value":"6122477"}],"name":[{"family":"Rastall","given":["Paul"],"prefix":["Dr"]}],"telecom":[{"system":"phone","value":"01136323200","use":"work"}],"gender":"male"}},{"fullUrl":"[baseURL]/Organization/cd5f7770-6249-4f5d-ad8e-d0bb1446a4d9","resource":{"resourceType":"Organization","id":"cd5f7770-6249-4f5d-ad8e-d0bb1446a4d9","meta":{"profile":["https://fhir.hl7.org.uk/STU3/StructureDefinition/CareConnect-Organization-1"]},"identifier":[{"system":"https://fhir.nhs.uk/Id/ods-organization-code","value":"ABC123"}],"name":"ANYTOWN ROYAL INFIRMARY","telecom":[{"system":"phone","value":"01134875516"}],"address":[{"line":["1 High Street"],"city":"ANYTOWN","postalCode":"LS1 9AM"}]}},{"fullUrl":"[baseURL]/Patient/4f78d392-c9e0-4f1f-9ab6-57d387838690","resource":{"resourceType":"Patient","id":"4f78d392-c9e0-4f1f-9ab6-57d387838690","meta":{"profile":["https://fhir.hl7.org.uk/STU3/StructureDefinition/CareConnect-Patient-1"]},"identifier":[{"extension":[{"url":"https://fhir.hl7.org.uk/STU3/StructureDefinition/Extension-CareConnect-NHSNumberVerificationStatus-1","valueCodeableConcept":{"coding":[{"system":"https://fhir.hl7.org.uk/STU3/CodeSystem/CareConnect-NHSNumberVerificationStatus-1","code":"01","display":"Number present and verified"}]}}],"system":"https://fhir.nhs.uk/Id/nhs-number","value":"2378954317"}],"name":[{"use":"official","text":"Mr William Smith","family":"SMITH","given":["William"],"prefix":["Mr"]}],"gender":"male","birthDate":"1966-02-04","address":[{"use":"home","line":["14 Sunny Mews"],"city":"ANYTOWN","district":"WEST YORKSHIRE","postalCode":"LS17 4NK"}],"maritalStatus":{"coding":[{"system":"http://hl7.org/fhir/v3/MaritalStatus","code":"M","display":"Married"}]}}}]}