<Appointment xmlns="http://hl7.org/fhir">
  <meta>
    <profile value="https://fhir.hl7.org.uk/STU3/StructureDefinition/CareConnect-Appointment-1" />
  </meta>
  <contained>
    <DocumentReference xmlns="http://hl7.org/fhir">
      <id value="123" />
      <meta>
        <profile value="https://fhir.hl7.org.uk/STU3/StructureDefinition/CareConnect-DocumentReference-1" />
      </meta>
      <identifier>
        <system value="https://tools.ietf.org/html/rfc4122" />
        <value value="6b9c59dd-675b-4026-98db-f608ef501e6e" />
      </identifier>
      <status value="current" />
      <type>
        <coding>
          <system value="urn:oid:2.16.840.1.113883.2.1.3.2.4.18.17" />
          <code value="POCD_MT200001GB02" />
          <display value="Integrated Urgent Care Report" />
        </coding>
      </type>
      <indexed value="2018-12-20T09:43:41+11:00" />
      <content>
        <attachment>
          <contentType value="application/hl7-v3+xml" />
          <language value="en" />
        </attachment>
      </content>
    </DocumentReference>
  </contained>
  <contained>
    <Slot xmlns="http://hl7.org/fhir">
      <id value="slot005" />
      <meta>
          <profile value="https://fhir.hl7.org.uk/STU3/StructureDefinition/CareConnect-Slot-1" />
      </meta>
      <identifier>
        <system value="https://tools.ietf.org/html/rfc4122" />
        <value value="5a889965-3db4-4c29-8003-676c247a763e" />
      </identifier>
      <schedule>
        <reference value="Schedule/sched1111" />
      </schedule>
      <status value="busy" />
      <start value="2019-05-09T10:00:00.000+00:00" />
      <end value="2019-05-09T10:15:00.000+00:00" />
    </Slot>
  </contained>
  <contained>
    <Patient xmlns="http://hl7.org/fhir">
      <id value="P1" />
      <meta>
        <profile value="https://fhir.hl7.org.uk/STU3/StructureDefinition/CareConnect-Patient-1" />
      </meta>
      <identifier>
        <extension url="https://fhir.hl7.org.uk/STU3/StructureDefinition/Extension-CareConnect-NHSNumberVerificationStatus-1">
          <valueCodeableConcept>
            <coding>
              <system value="https://fhir.hl7.org.uk/STU3/CodeSystem/CareConnect-NHSNumberVerificationStatus-1" />
              <code value="01" />
              <display value="Number present and verified" />
            </coding>
          </valueCodeableConcept>
        </extension>
        <use value="official" />
        <system value="https://fhir.nhs.uk/Id/nhs-number" />
        <value value="1234554321" />
      </identifier>
      <name>
        <use value="official" />
        <family value="Chalmers" />
        <given value="Peter" />
        <prefix value="Mr" />
      </name>
      <telecom>
        <system value="phone" />
        <value value="01234 567 890" />
        <use value="home" />
        <rank value="1" />
      </telecom>
      <gender value="male" />
      <birthDate value="1974-12-25" />
      <address>
        <use value="home" />
        <text value="123 High Street, Leeds LS1 4HR" />
        <line value="123 High Street" />
        <line value="Leeds" />
        <city value="Leeds" />
        <postalCode value="LS1 4HR" />
      </address>
    </Patient>
  </contained>
  <status value="booked" />
  <description value="Reason for calling" />
  <supportingInformation>
    <reference value="#123" />
  </supportingInformation>
  <start value="2019-01-17T15:00:00.000Z" />
  <end value="2019-01-17T15:10:00.000Z" />
  <slot>
    <reference value="#slot005" />
  </slot>
  <created value="2019-01-17T14:32:22.579+00:00" />
  <participant>
    <actor>
      <reference value="#P1" />
      <identifier>
        <use value="official" />
        <system value="https://fhir.nhs.uk/Id/nhs-number" />
        <value value="1234554321" />
      </identifier>
      <display value="Peter James Chalmers" />
    </actor>
    <status value="accepted" />
  </participant>
</Appointment>
