<Appointment xmlns="http://hl7.org/fhir">
  <id value="5d8d5eec-00ce-4b00-8f01-95b1590cf686"/>
  <meta>
    <profile value="https://fhir.hl7.org.uk/STU3/StructureDefinition/CareConnect-Appointment-1" />
    <versionId value="__VERSIONID__" />
    <lastUpdated value="__TIMESTAMP__" />
  </meta>
  <contained>
    <DocumentReference xmlns="http://hl7.org/fhir">
      <id value="__DOC_REF__" />
      <meta>
        <profile value="https://fhir.hl7.org.uk/STU3/StructureDefinition/CareConnect-DocumentReference-1" />
      </meta>
      <identifier>
        <system value="https://tools.ietf.org/html/rfc4122" />
        <value value="__DOC_REF_IDENTIFIER__" />
      </identifier>
      <status value="current" />
      <type>
        <coding>
          <system value="urn:oid:2.16.840.1.113883.2.1.3.2.4.18.17" />
          <code value="POCD_MT200001GB02" />
          <display value="Integrated Urgent Care Report" />
        </coding>
      </type>
      <indexed value="2018-12-20T09:43:41+11:00" />
      <content>
        <attachment>
          <contentType value="application/hl7-v3+xml" />
          <language value="en" />
        </attachment>
      </content>
    </DocumentReference>
  </contained>
  <contained>
    <Slot xmlns="http://hl7.org/fhir">
      <id value="__SLOT_ID__" />
      <identifier>
        <system value="https://tools.ietf.org/html/rfc4122" />
        <value value="__SLOT_VALUE__" />
      </identifier>
      <schedule>
        <reference value="__SLOT_SCHED_REF__" />
      </schedule>
      <status value="busy" />
      <start value="__SLOT_START_TIME__" />
      <end value="__SLOT_END_TIME__" />
    </Slot>
  </contained>
  <contained>
    <Patient xmlns="http://hl7.org/fhir">
      <id value="P1" />
      <meta>
        <profile value="https://fhir.hl7.org.uk/STU3/StructureDefinition/CareConnect-Patient-1" />
      </meta>
      <name>
        <use value="official" />
        <family value="Chalmers" />
        <given value="Peter" />
        <prefix value="Mr" />
      </name>
      <telecom>
        <system value="phone" />
        <value value="01234 567 890" />
        <use value="home" />
        <rank value="1" />
      </telecom>
      <gender value="male" />
      <birthDate value="1974-12-25" />
      <address>
        <use value="home" />
        <text value="123 High Street, Leeds LS1 4HR" />
        <line value="123 High Street" />
        <line value="Leeds" />
        <city value="Leeds" />
        <postalCode value="LS1 4HR" />
      </address>
    </Patient>
  </contained>
  <status value="booked" />
  <description value="Reason for calling" />
  <supportingInformation>
    <reference value="#__DOC_REF__" />
  </supportingInformation>
  <start value="__START_TIME__" />
  <end value="__END_TIME__" />
  <slot>
    <reference value="#__SLOT_ID__" />
  </slot>
  <created value="__CREATED_TIME__" />
  <participant>
    <actor>
      <reference value="#P1" />
      <identifier>
        <use value="official" />
        <system value="https://fhir.nhs.uk/Id/nhs-number" />
        <value value="1234554321" />
      </identifier>
      <display value="Peter James Chalmers" />
    </actor>
    <status value="accepted" />
  </participant>
</Appointment>
